%time,field.header.seq,field.header.stamp,field.header.frame_id,field.orientation.x,field.orientation.y,field.orientation.z,field.orientation.w,field.orientation_covariance0,field.orientation_covariance1,field.orientation_covariance2,field.orientation_covariance3,field.orientation_covariance4,field.orientation_covariance5,field.orientation_covariance6,field.orientation_covariance7,field.orientation_covariance8,field.angular_velocity.x,field.angular_velocity.y,field.angular_velocity.z,field.angular_velocity_covariance0,field.angular_velocity_covariance1,field.angular_velocity_covariance2,field.angular_velocity_covariance3,field.angular_velocity_covariance4,field.angular_velocity_covariance5,field.angular_velocity_covariance6,field.angular_velocity_covariance7,field.angular_velocity_covariance8,field.linear_acceleration.x,field.linear_acceleration.y,field.linear_acceleration.z,field.linear_acceleration_covariance0,field.linear_acceleration_covariance1,field.linear_acceleration_covariance2,field.linear_acceleration_covariance3,field.linear_acceleration_covariance4,field.linear_acceleration_covariance5,field.linear_acceleration_covariance6,field.linear_acceleration_covariance7,field.linear_acceleration_covariance8
1702623864132786853,188,1702623864132550239,base_link,-0.00756855315867843,-0.015452351076722924,-0.9789635983923424,0.2033081770908448,0.0,0.0,0.0,0.0,0.0,0.0,0.0,0.0,0.0,0.0010652896016836166,-0.019173167645931244,0.004423173144459724,0.0,0.0,0.0,0.0,0.0,0.0,0.0,0.0,0.0,0.2557769048073296,0.265209859320525,9.793071117146367,0.0,0.0,0.0,0.0,0.0,0.0,0.0,0.0,0.0
1702623864135946940,189,1702623864135820388,base_link,-0.007604738249654056,-0.015496238864636754,-0.9789601908346067,0.2033198940051732,0.0,0.0,0.0,0.0,0.0,0.0,0.0,0.0,0.0,0.0010652896016836166,-0.019173167645931244,0.004423173144459724,0.0,0.0,0.0,0.0,0.0,0.0,0.0,0.0,0.0,0.2557769048073296,0.265209859320525,9.793071117146367,0.0,0.0,0.0,0.0,0.0,0.0,0.0,0.0,0.0
1702623864139397500,190,1702623864139252901,base_link,-0.007604738249654056,-0.015496238864636754,-0.9789601908346067,0.2033198940051732,0.0,0.0,0.0,0.0,0.0,0.0,0.0,0.0,0.0,0.017044473439455032,0.02663288824260235,0.0022925063967704773,0.0,0.0,0.0,0.0,0.0,0.0,0.0,0.0,0.0,0.3750973240530761,0.4571227154692436,9.782143978724207,0.0,0.0,0.0,0.0,0.0,0.0,0.0,0.0,0.0
1702623864142706763,191,1702623864142534732,base_link,-0.007545549778296303,-0.01552283210308249,-0.9789592340655363,0.20332467730175147,0.0,0.0,0.0,0.0,0.0,0.0,0.0,0.0,0.0,0.017044473439455032,0.02663288824260235,0.0022925063967704773,0.0,0.0,0.0,0.0,0.0,0.0,0.0,0.0,0.0,0.3750973240530761,0.4571227154692436,9.782143978724207,0.0,0.0,0.0,0.0,0.0,0.0,0.0,0.0,0.0
1702623864146094738,192,1702623864145950317,base_link,-0.007545549778296303,-0.01552283210308249,-0.9789592340655363,0.20332467730175147,0.0,0.0,0.0,0.0,0.0,0.0,0.0,0.0,0.0,-0.01704411767423153,-0.00212929118424654,0.0012272614985704422,0.0,0.0,0.0,0.0,0.0,0.0,0.0,0.0,0.0,0.19529096015467873,0.32925680090252357,9.79252017613144,0.0,0.0,0.0,0.0,0.0,0.0,0.0,0.0,0.0
1702623864149561515,193,1702623864149278402,base_link,-0.007606005235593235,-0.01545312365716121,-0.9789596474413715,0.20332574439814102,0.0,0.0,0.0,0.0,0.0,0.0,0.0,0.0,0.0,-0.01704411767423153,-0.00212929118424654,0.0012272614985704422,0.0,0.0,0.0,0.0,0.0,0.0,0.0,0.0,0.0,0.19529096015467873,0.32925680090252357,9.79252017613144,0.0,0.0,0.0,0.0,0.0,0.0,0.0,0.0,0.0
1702623864153225615,194,1702623864152844190,base_link,-0.007606005235593235,-0.01545312365716121,-0.9789596474413715,0.20332574439814102,0.0,0.0,0.0,0.0,0.0,0.0,0.0,0.0,0.0,-0.036219485104084015,-0.05219574272632599,0.0022927075624465942,0.0,0.0,0.0,0.0,0.0,0.0,0.0,0.0,0.0,0.25840150781281757,0.15748762508439562,9.795326758649011,0.0,0.0,0.0,0.0,0.0,0.0,0.0,0.0,0.0
1702623864156450334,195,1702623864156079530,base_link,-0.007792221174322973,-0.015380630145094627,-0.9789590857996773,0.20332689402971363,0.0,0.0,0.0,0.0,0.0,0.0,0.0,0.0,0.0,-0.036219485104084015,-0.05219574272632599,0.0022927075624465942,0.0,0.0,0.0,0.0,0.0,0.0,0.0,0.0,0.0,0.25840150781281757,0.15748762508439562,9.795326758649011,0.0,0.0,0.0,0.0,0.0,0.0,0.0,0.0,0.0
1702623864159795479,196,1702623864159474611,base_link,-0.007792221174322973,-0.015380630145094627,-0.9789590857996773,0.20332689402971363,0.0,0.0,0.0,0.0,0.0,0.0,0.0,0.0,0.0,-0.01704517938196659,-0.02343272976577282,0.00122753344476223,0.0,0.0,0.0,0.0,0.0,0.0,0.0,0.0,0.0,0.4104850733157892,0.18094990159093777,9.78972722488728,0.0,0.0,0.0,0.0,0.0,0.0,0.0,0.0,0.0
1702623864163005863,197,1702623864162670373,base_link,-0.007845617534152787,-0.015338626348173675,-0.9789590322453199,0.20332827155259509,0.0,0.0,0.0,0.0,0.0,0.0,0.0,0.0,0.0,-0.01704517938196659,-0.02343272976577282,0.00122753344476223,0.0,0.0,0.0,0.0,0.0,0.0,0.0,0.0,0.0,0.4104850733157892,0.18094990159093777,9.78972722488728,0.0,0.0,0.0,0.0,0.0,0.0,0.0,0.0,0.0
1702623864166535394,198,1702623864166185379,base_link,-0.007845617534152787,-0.015338626348173675,-0.9789590322453199,0.20332827155259509,0.0,0.0,0.0,0.0,0.0,0.0,0.0,0.0,0.0,-0.0021315980702638626,0.023438619449734688,-0.001968229189515114,0.0,0.0,0.0,0.0,0.0,0.0,0.0,0.0,0.0,0.39612913762089474,0.19430375952412868,9.79006270436316,0.0,0.0,0.0,0.0,0.0,0.0,0.0,0.0,0.0
1702623864169937405,199,1702623864169431924,base_link,-0.007802773043582317,-0.01533034283174687,-0.9789602525892056,0.20332466936397578,0.0,0.0,0.0,0.0,0.0,0.0,0.0,0.0,0.0,-0.0021315980702638626,0.023438619449734688,-0.001968229189515114,0.0,0.0,0.0,0.0,0.0,0.0,0.0,0.0,0.0,0.39612913762089474,0.19430375952412868,9.79006270436316,0.0,0.0,0.0,0.0,0.0,0.0,0.0,0.0,0.0
1702623864173251182,200,1702623864172796010,base_link,-0.007802773043582317,-0.01533034283174687,-0.9789602525892056,0.20332466936397578,0.0,0.0,0.0,0.0,0.0,0.0,0.0,0.0,0.0,0.0031947121024131775,0.0021332185715436935,0.0001622457057237625,0.0,0.0,0.0,0.0,0.0,0.0,0.0,0.0,0.0,0.4149698353163013,0.1293724877913873,9.790355601058637,0.0,0.0,0.0,0.0,0.0,0.0,0.0,0.0,0.0
1702623864176419767,201,1702623864175983428,base_link,-0.007808643572239311,-0.015329276022843433,-0.978960457207647,0.20332353923235696,0.0,0.0,0.0,0.0,0.0,0.0,0.0,0.0,0.0,0.0031947121024131775,0.0021332185715436935,0.0001622457057237625,0.0,0.0,0.0,0.0,0.0,0.0,0.0,0.0,0.0,0.4149698353163013,0.1293724877913873,9.790355601058637,0.0,0.0,0.0,0.0,0.0,0.0,0.0,0.0,0.0
1702623864179891108,202,1702623864179428577,base_link,-0.007808643572239311,-0.015329276022843433,-0.978960457207647,0.20332353923235696,0.0,0.0,0.0,0.0,0.0,0.0,0.0,0.0,0.0,-0.0053275469690561295,-0.0074540311470627785,-0.000903034582734108,0.0,0.0,0.0,0.0,0.0,0.0,0.0,0.0,0.0,0.32672002917160786,0.2038197419858529,9.792431339320942,0.0,0.0,0.0,0.0,0.0,0.0,0.0,0.0,0.0
1702623864183006349,203,1702623864182633876,base_link,-0.007841878490876843,-0.015300096387953866,-0.9789613218917016,0.20332029468871465,0.0,0.0,0.0,0.0,0.0,0.0,0.0,0.0,0.0,-0.0053275469690561295,-0.0074540311470627785,-0.000903034582734108,0.0,0.0,0.0,0.0,0.0,0.0,0.0,0.0,0.0,0.32672002917160786,0.2038197419858529,9.792431339320942,0.0,0.0,0.0,0.0,0.0,0.0,0.0,0.0,0.0
1702623864186573387,204,1702623864186195373,base_link,-0.007841878490876843,-0.015300096387953866,-0.9789613218917016,0.20332029468871465,0.0,0.0,0.0,0.0,0.0,0.0,0.0,0.0,0.0,-0.013849901035428047,-0.004258131608366966,0.0012275539338588715,0.0,0.0,0.0,0.0,0.0,0.0,0.0,0.0,0.0,0.36965282345042266,0.1518308599397824,9.791848864238311,0.0,0.0,0.0,0.0,0.0,0.0,0.0,0.0,0.0
1702623864189666288,205,1702623864189354896,base_link,-0.007848448545899205,-0.015255168041667488,-0.9789611297999463,0.20332434198653077,0.0,0.0,0.0,0.0,0.0,0.0,0.0,0.0,0.0,-0.013849901035428047,-0.004258131608366966,0.0012275539338588715,0.0,0.0,0.0,0.0,0.0,0.0,0.0,0.0,0.0,0.36965282345042266,0.1518308599397824,9.791848864238311,0.0,0.0,0.0,0.0,0.0,0.0,0.0,0.0,0.0
1702623864193018649,206,1702623864192754030,base_link,-0.007848448545899205,-0.015255168041667488,-0.9789611297999463,0.20332434198653077,0.0,0.0,0.0,0.0,0.0,0.0,0.0,0.0,0.0,-0.003197360783815384,0.010655323043465614,-0.0009029507637023926,0.0,0.0,0.0,0.0,0.0,0.0,0.0,0.0,0.0,0.30266730709928136,0.1378721495797793,9.794354688879892,0.0,0.0,0.0,0.0,0.0,0.0,0.0,0.0,0.0
1702623864196213595,207,1702623864195967674,base_link,-0.007842240639090258,-0.015245612555397412,-0.97896152216497,0.20332340908024932,0.0,0.0,0.0,0.0,0.0,0.0,0.0,0.0,0.0,-0.003197360783815384,0.010655323043465614,-0.0009029507637023926,0.0,0.0,0.0,0.0,0.0,0.0,0.0,0.0,0.0,0.30266730709928136,0.1378721495797793,9.794354688879892,0.0,0.0,0.0,0.0,0.0,0.0,0.0,0.0,0.0
1702623864199939968,208,1702623864199468135,base_link,-0.007842240639090258,-0.015245612555397412,-0.97896152216497,0.20332340908024932,0.0,0.0,0.0,0.0,0.0,0.0,0.0,0.0,0.0,0.011716332286596298,-0.0031930170953273773,-0.0009030364453792572,0.0,0.0,0.0,0.0,0.0,0.0,0.0,0.0,0.0,0.2819066198588513,0.2368244344813066,9.793081376406121,0.0,0.0,0.0,0.0,0.0,0.0,0.0,0.0,0.0
1702623864203010969,209,1702623864202674865,base_link,-0.007845280040394378,-0.01526837076752665,-0.9789613343300441,0.2033224884805729,0.0,0.0,0.0,0.0,0.0,0.0,0.0,0.0,0.0,0.011716332286596298,-0.0031930170953273773,-0.0009030364453792572,0.0,0.0,0.0,0.0,0.0,0.0,0.0,0.0,0.0,0.2819066198588513,0.2368244344813066,9.793081376406121,0.0,0.0,0.0,0.0,0.0,0.0,0.0,0.0,0.0
1702623864206376771,210,1702623864206094741,base_link,-0.007845280040394378,-0.01526837076752665,-0.9789613343300441,0.2033224884805729,0.0,0.0,0.0,0.0,0.0,0.0,0.0,0.0,0.0,-0.0063932351768016815,0.0021332427859306335,0.00016221031546592712,0.0,0.0,0.0,0.0,0.0,0.0,0.0,0.0,0.0,0.31384243854481036,0.2477853182620348,9.791838711897885,0.0,0.0,0.0,0.0,0.0,0.0,0.0,0.0,0.0
1702623864209621768,211,1702623864209301471,base_link,-0.007854224209440347,-0.015241657885144273,-0.9789622855620072,0.20331956736672302,0.0,0.0,0.0,0.0,0.0,0.0,0.0,0.0,0.0,-0.0063932351768016815,0.0021332427859306335,0.00016221031546592712,0.0,0.0,0.0,0.0,0.0,0.0,0.0,0.0,0.0,0.31384243854481036,0.2477853182620348,9.791838711897885,0.0,0.0,0.0,0.0,0.0,0.0,0.0,0.0,0.0
1702623864212988725,212,1702623864212740421,base_link,-0.007854224209440347,-0.015241657885144273,-0.9789622855620072,0.20331956736672302,0.0,0.0,0.0,0.0,0.0,0.0,0.0,0.0,0.0,-0.005328133702278137,0.00106796994805336,0.0001622270792722702,0.0,0.0,0.0,0.0,0.0,0.0,0.0,0.0,0.0,0.2804594965204263,0.22896079866970623,9.793309931962943,0.0,0.0,0.0,0.0,0.0,0.0,0.0,0.0,0.0
1702623864216289680,213,1702623864215970754,base_link,-0.007874605136441983,-0.01522044613544674,-0.9789634590850843,0.203314717592086,0.0,0.0,0.0,0.0,0.0,0.0,0.0,0.0,0.0,-0.005328133702278137,0.00106796994805336,0.0001622270792722702,0.0,0.0,0.0,0.0,0.0,0.0,0.0,0.0,0.0,0.2804594965204263,0.22896079866970623,9.793309931962943,0.0,0.0,0.0,0.0,0.0,0.0,0.0,0.0,0.0
1702623864219965498,214,1702623864219438076,base_link,-0.007874605136441983,-0.01522044613544674,-0.9789634590850843,0.203314717592086,0.0,0.0,0.0,0.0,0.0,0.0,0.0,0.0,0.0,-0.008524149656295776,-0.00851919874548912,-0.0009030252695083618,0.0,0.0,0.0,0.0,0.0,0.0,0.0,0.0,0.0,0.2783718920407148,0.2926188511279851,9.791674182574,0.0,0.0,0.0,0.0,0.0,0.0,0.0,0.0,0.0
1702623864223043034,215,1702623864222665071,base_link,-0.007893373313338493,-0.015192779349188567,-0.9789643823731227,0.20331161343660017,0.0,0.0,0.0,0.0,0.0,0.0,0.0,0.0,0.0,-0.008524149656295776,-0.00851919874548912,-0.0009030252695083618,0.0,0.0,0.0,0.0,0.0,0.0,0.0,0.0,0.0,0.2783718920407148,0.2926188511279851,9.791674182574,0.0,0.0,0.0,0.0,0.0,0.0,0.0,0.0,0.0
1702623864226439953,216,1702623864226097822,base_link,-0.007893373313338493,-0.015192779349188567,-0.9789643823731227,0.20331161343660017,0.0,0.0,0.0,0.0,0.0,0.0,0.0,0.0,0.0,-0.006393739953637123,0.009590094909071922,0.0033580679446458817,0.0,0.0,0.0,0.0,0.0,0.0,0.0,0.0,0.0,0.35549999674732174,0.15277626407302658,9.79235820246832,0.0,0.0,0.0,0.0,0.0,0.0,0.0,0.0,0.0
1702623864229963639,217,1702623864229470729,base_link,-0.007866691131731707,-0.015163417404191575,-0.9789637816938905,0.2033177318259796,0.0,0.0,0.0,0.0,0.0,0.0,0.0,0.0,0.0,-0.006393739953637123,0.009590094909071922,0.0033580679446458817,0.0,0.0,0.0,0.0,0.0,0.0,0.0,0.0,0.0,0.35549999674732174,0.15277626407302658,9.79235820246832,0.0,0.0,0.0,0.0,0.0,0.0,0.0,0.0,0.0
1702623864233174480,218,1702623864232837438,base_link,-0.007866691131731707,-0.015163417404191575,-0.9789637816938905,0.2033177318259796,0.0,0.0,0.0,0.0,0.0,0.0,0.0,0.0,0.0,-0.002132721245288849,0.019177062436938286,0.00016228482127189636,0.0,0.0,0.0,0.0,0.0,0.0,0.0,0.0,0.0,0.31946189274250303,0.12029592110411183,9.794052939945296,0.0,0.0,0.0,0.0,0.0,0.0,0.0,0.0,0.0
1702623864236415694,219,1702623864236040592,base_link,-0.007817297164899015,-0.01513489501983176,-0.9789649857412285,0.20331596472104857,0.0,0.0,0.0,0.0,0.0,0.0,0.0,0.0,0.0,-0.002132721245288849,0.019177062436938286,0.00016228482127189636,0.0,0.0,0.0,0.0,0.0,0.0,0.0,0.0,0.0,0.31946189274250303,0.12029592110411183,9.794052939945296,0.0,0.0,0.0,0.0,0.0,0.0,0.0,0.0,0.0
1702623864239957875,220,1702623864239552497,base_link,-0.007817297164899015,-0.01513489501983176,-0.9789649857412285,0.20331596472104857,0.0,0.0,0.0,0.0,0.0,0.0,0.0,0.0,0.0,-0.009589653462171555,0.015980856493115425,0.002292849123477936,0.0,0.0,0.0,0.0,0.0,0.0,0.0,0.0,0.0,0.29715696224967836,0.21115648421095462,9.793217585602918,0.0,0.0,0.0,0.0,0.0,0.0,0.0,0.0,0.0
1702623864243291041,221,1702623864242774486,base_link,-0.007786640479977392,-0.015083668082485029,-0.9789657761134135,0.2033171423807525,0.0,0.0,0.0,0.0,0.0,0.0,0.0,0.0,0.0,-0.009589653462171555,0.015980856493115425,0.002292849123477936,0.0,0.0,0.0,0.0,0.0,0.0,0.0,0.0,0.0,0.29715696224967836,0.21115648421095462,9.793217585602918,0.0,0.0,0.0,0.0,0.0,0.0,0.0,0.0,0.0
1702623864246611280,222,1702623864246246814,base_link,-0.007786640479977392,-0.015083668082485029,-0.9789657761134135,0.2033171423807525,0.0,0.0,0.0,0.0,0.0,0.0,0.0,0.0,0.0,-0.01704672910273075,0.007458502426743507,-0.0009028632193803787,0.0,0.0,0.0,0.0,0.0,0.0,0.0,0.0,0.0,0.30834976387844554,0.22118494805553668,9.792650184800324,0.0,0.0,0.0,0.0,0.0,0.0,0.0,0.0,0.0
1702623864249697783,223,1702623864249366998,base_link,-0.007788486524657025,-0.015031564421724878,-0.9789671258030315,0.20331443172003846,0.0,0.0,0.0,0.0,0.0,0.0,0.0,0.0,0.0,-0.01704672910273075,0.007458502426743507,-0.0009028632193803787,0.0,0.0,0.0,0.0,0.0,0.0,0.0,0.0,0.0,0.30834976387844554,0.22118494805553668,9.792650184800324,0.0,0.0,0.0,0.0,0.0,0.0,0.0,0.0,0.0
1702623864253245861,224,1702623864252877235,base_link,-0.007788486524657025,-0.015031564421724878,-0.9789671258030315,0.20331443172003846,0.0,0.0,0.0,0.0,0.0,0.0,0.0,0.0,0.0,-0.008524823933839798,0.0031973905861377716,-0.001968078315258026,0.0,0.0,0.0,0.0,0.0,0.0,0.0,0.0,0.0,0.250109790120599,0.18790695073452648,9.795005669766175,0.0,0.0,0.0,0.0,0.0,0.0,0.0,0.0,0.0
1702623864256292567,225,1702623864256000280,base_link,-0.007790783775927743,-0.014994547016612646,-0.9789679358312896,0.2033131768040312,0.0,0.0,0.0,0.0,0.0,0.0,0.0,0.0,0.0,-0.008524823933839798,0.0031973905861377716,-0.001968078315258026,0.0,0.0,0.0,0.0,0.0,0.0,0.0,0.0,0.0,0.250109790120599,0.18790695073452648,9.795005669766175,0.0,0.0,0.0,0.0,0.0,0.0,0.0,0.0,0.0
1702623864259695462,226,1702623864259415388,base_link,-0.007790783775927743,-0.014994547016612646,-0.9789679358312896,0.2033131768040312,0.0,0.0,0.0,0.0,0.0,0.0,0.0,0.0,0.0,-0.010655535385012627,1.5348196029663086e-06,0.00016250275075435638,0.0,0.0,0.0,0.0,0.0,0.0,0.0,0.0,0.0,0.308075598481276,0.2675303645303208,9.791502281553873,0.0,0.0,0.0,0.0,0.0,0.0,0.0,0.0,0.0
1702623864262895877,227,1702623864262625932,base_link,-0.0078075533311770095,-0.014965146683523948,-0.978969201702098,0.2033086043788565,0.0,0.0,0.0,0.0,0.0,0.0,0.0,0.0,0.0,-0.010655535385012627,1.5348196029663086e-06,0.00016250275075435638,0.0,0.0,0.0,0.0,0.0,0.0,0.0,0.0,0.0,0.308075598481276,0.2675303645303208,9.791502281553873,0.0,0.0,0.0,0.0,0.0,0.0,0.0,0.0,0.0
1702623864266679426,228,1702623864266109466,base_link,-0.0078075533311770095,-0.014965146683523948,-0.978969201702098,0.2033086043788565,0.0,0.0,0.0,0.0,0.0,0.0,0.0,0.0,0.0,-0.011721042916178703,-0.005324662663042545,-0.0030332598835229874,0.0,0.0,0.0,0.0,0.0,0.0,0.0,0.0,0.0,0.20654730842312,0.3014124210741651,9.793185833108927,0.0,0.0,0.0,0.0,0.0,0.0,0.0,0.0,0.0
1702623864266795699,229,1702623864266396760,base_link,-0.007842341780116677,-0.014936409472082158,-0.9789714692762486,0.20329845963653856,0.0,0.0,0.0,0.0,0.0,0.0,0.0,0.0,0.0,-0.011721042916178703,-0.005324662663042545,-0.0030332598835229874,0.0,0.0,0.0,0.0,0.0,0.0,0.0,0.0,0.0,0.20654730842312,0.3014124210741651,9.793185833108927,0.0,0.0,0.0,0.0,0.0,0.0,0.0,0.0,0.0
1702623864273301129,230,1702623864272736310,base_link,-0.007842341780116677,-0.014936409472082158,-0.9789714692762486,0.20329845963653856,0.0,0.0,0.0,0.0,0.0,0.0,0.0,0.0,0.0,-0.00852549821138382,-0.007454930804669857,-0.001967974007129669,0.0,0.0,0.0,0.0,0.0,0.0,0.0,0.0,0.0,0.346017652653372,0.16927346987937827,9.792426577536707,0.0,0.0,0.0,0.0,0.0,0.0,0.0,0.0,0.0
1702623864273313538,231,1702623864273010730,base_link,-0.00788369797140799,-0.014908699244876547,-0.978972623934409,0.2032933338309441,0.0,0.0,0.0,0.0,0.0,0.0,0.0,0.0,0.0,-0.00852549821138382,-0.007454930804669857,-0.001967974007129669,0.0,0.0,0.0,0.0,0.0,0.0,0.0,0.0,0.0,0.346017652653372,0.16927346987937827,9.792426577536707,0.0,0.0,0.0,0.0,0.0,0.0,0.0,0.0,0.0
1702623864276537087,232,1702623864276115894,base_link,-0.00788369797140799,-0.014908699244876547,-0.978972623934409,0.2032933338309441,0.0,0.0,0.0,0.0,0.0,0.0,0.0,0.0,0.0,-0.004264671355485916,-0.015976695343852043,-0.003033239394426346,0.0,0.0,0.0,0.0,0.0,0.0,0.0,0.0,0.0,0.36414040874322995,0.13040071342526055,9.792364240399685,0.0,0.0,0.0,0.0,0.0,0.0,0.0,0.0,0.0
1702623864279586775,233,1702623864279312849,base_link,-0.007949076434666994,-0.014899470918786729,-0.9789733277586725,0.20328807512317731,0.0,0.0,0.0,0.0,0.0,0.0,0.0,0.0,0.0,-0.004264671355485916,-0.015976695343852043,-0.003033239394426346,0.0,0.0,0.0,0.0,0.0,0.0,0.0,0.0,0.0,0.36414040874322995,0.13040071342526055,9.792364240399685,0.0,0.0,0.0,0.0,0.0,0.0,0.0,0.0,0.0
1702623864283126740,234,1702623864282783746,base_link,-0.007949076434666994,-0.014899470918786729,-0.9789733277586725,0.20328807512317731,0.0,0.0,0.0,0.0,0.0,0.0,0.0,0.0,0.0,-0.004264891147613525,-0.018106745555996895,-0.003033256158232689,0.0,0.0,0.0,0.0,0.0,0.0,0.0,0.0,0.0,0.38008094029050676,0.10753123059743278,9.792036331288507,0.0,0.0,0.0,0.0,0.0,0.0,0.0,0.0,0.0
1702623864286276889,235,1702623864285995960,base_link,-0.008016262451884259,-0.014890836647541619,-0.9789744055896701,0.20328087888581914,0.0,0.0,0.0,0.0,0.0,0.0,0.0,0.0,0.0,-0.004264891147613525,-0.018106745555996895,-0.003033256158232689,0.0,0.0,0.0,0.0,0.0,0.0,0.0,0.0,0.0,0.38008094029050676,0.10753123059743278,9.792036331288507,0.0,0.0,0.0,0.0,0.0,0.0,0.0,0.0,0.0
1702623864289651401,236,1702623864289400100,base_link,-0.008016262451884259,-0.014890836647541619,-0.9789744055896701,0.20328087888581914,0.0,0.0,0.0,0.0,0.0,0.0,0.0,0.0,0.0,-0.0031998269259929657,-0.014910533092916012,-0.0009027440100908279,0.0,0.0,0.0,0.0,0.0,0.0,0.0,0.0,0.0,0.3875428631422575,0.12090028216132123,9.79158790242935,0.0,0.0,0.0,0.0,0.0,0.0,0.0,0.0,0.0
1702623864292852452,237,1702623864292630434,base_link,-0.008062602029778928,-0.014899414299207442,-0.9789745788237009,0.2032775834149143,0.0,0.0,0.0,0.0,0.0,0.0,0.0,0.0,0.0,-0.0031998269259929657,-0.014910533092916012,-0.0009027440100908279,0.0,0.0,0.0,0.0,0.0,0.0,0.0,0.0,0.0,0.3875428631422575,0.12090028216132123,9.79158790242935,0.0,0.0,0.0,0.0,0.0,0.0,0.0,0.0,0.0
1702623864296303539,238,1702623864296057939,base_link,-0.008062602029778928,-0.014899414299207442,-0.9789745788237009,0.2032775834149143,0.0,0.0,0.0,0.0,0.0,0.0,0.0,0.0,0.0,0.005322257988154888,-0.008518729358911514,0.003358239307999611,0.0,0.0,0.0,0.0,0.0,0.0,0.0,0.0,0.0,0.3302331516844873,0.1326971851441394,9.793535496570346,0.0,0.0,0.0,0.0,0.0,0.0,0.0,0.0,0.0
1702623864299521568,239,1702623864299281835,base_link,-0.008096572436245732,-0.014919141662719942,-0.9789725426991943,0.2032845920573092,0.0,0.0,0.0,0.0,0.0,0.0,0.0,0.0,0.0,0.005322257988154888,-0.008518729358911514,0.003358239307999611,0.0,0.0,0.0,0.0,0.0,0.0,0.0,0.0,0.0,0.3302331516844873,0.1326971851441394,9.793535496570346,0.0,0.0,0.0,0.0,0.0,0.0,0.0,0.0,0.0
1702623864303184256,240,1702623864302749156,base_link,-0.008096572436245732,-0.014919141662719942,-0.9789725426991943,0.2032845920573092,0.0,0.0,0.0,0.0,0.0,0.0,0.0,0.0,0.0,0.007452764548361301,-0.020236296579241753,0.004423420876264572,0.0,0.0,0.0,0.0,0.0,0.0,0.0,0.0,0.0,0.2911213174359271,0.16540571071624038,9.794278397584828,0.0,0.0,0.0,0.0,0.0,0.0,0.0,0.0,0.0
1702623864306338428,241,1702623864305967330,base_link,-0.008160184625910283,-0.014947888489147803,-0.9789699133155942,0.2032925990769092,0.0,0.0,0.0,0.0,0.0,0.0,0.0,0.0,0.0,0.007452764548361301,-0.020236296579241753,0.004423420876264572,0.0,0.0,0.0,0.0,0.0,0.0,0.0,0.0,0.0,0.2911213174359271,0.16540571071624038,9.794278397584828,0.0,0.0,0.0,0.0,0.0,0.0,0.0,0.0,0.0
1702623864309671101,242,1702623864309403657,base_link,-0.008160184625910283,-0.014947888489147803,-0.9789699133155942,0.2032925990769092,0.0,0.0,0.0,0.0,0.0,0.0,0.0,0.0,0.0,-0.005330564454197884,-0.01810532994568348,-0.000902937725186348,0.0,0.0,0.0,0.0,0.0,0.0,0.0,0.0,0.0,0.31091977674073945,0.21897892785885598,9.792618501789258,0.0,0.0,0.0,0.0,0.0,0.0,0.0,0.0,0.0
1702623864312958210,243,1702623864312628746,base_link,-0.008226599330514589,-0.014944849884456879,-0.9789694815425019,0.20329222497132332,0.0,0.0,0.0,0.0,0.0,0.0,0.0,0.0,0.0,-0.005330564454197884,-0.01810532994568348,-0.000902937725186348,0.0,0.0,0.0,0.0,0.0,0.0,0.0,0.0,0.0,0.31091977674073945,0.21897892785885598,9.792618501789258,0.0,0.0,0.0,0.0,0.0,0.0,0.0,0.0,0.0
1702623864316295003,244,1702623864316056251,base_link,-0.008226599330514589,-0.014944849884456879,-0.9789694815425019,0.20329222497132332,0.0,0.0,0.0,0.0,0.0,0.0,0.0,0.0,0.0,-0.004265470430254936,-0.015974421054124832,0.0012275800108909607,0.0,0.0,0.0,0.0,0.0,0.0,0.0,0.0,0.0,0.30782102837069913,0.2589054887106531,9.791742141335643,0.0,0.0,0.0,0.0,0.0,0.0,0.0,0.0,0.0
1702623864319569520,245,1702623864319291353,base_link,-0.008291456003272704,-0.014936878497720005,-0.9789677127889299,0.20329869339201723,0.0,0.0,0.0,0.0,0.0,0.0,0.0,0.0,0.0,-0.004265470430254936,-0.015974421054124832,0.0012275800108909607,0.0,0.0,0.0,0.0,0.0,0.0,0.0,0.0,0.0,0.30782102837069913,0.2589054887106531,9.791742141335643,0.0,0.0,0.0,0.0,0.0,0.0,0.0,0.0,0.0
1702623864323048360,246,1702623864322702884,base_link,-0.008291456003272704,-0.014936878497720005,-0.9789677127889299,0.20329869339201723,0.0,0.0,0.0,0.0,0.0,0.0,0.0,0.0,0.0,-0.003200322389602661,-0.01277834177017212,0.007619176059961319,0.0,0.0,0.0,0.0,0.0,0.0,0.0,0.0,0.0,0.3299291051013231,0.2380261350279657,9.791551988558847,0.0,0.0,0.0,0.0,0.0,0.0,0.0,0.0,0.0
1702623864326225336,247,1702623864325955629,base_link,-0.008337533108134523,-0.014927947936149223,-0.9789646881904875,0.2033120291281059,0.0,0.0,0.0,0.0,0.0,0.0,0.0,0.0,0.0,-0.003200322389602661,-0.01277834177017212,0.007619176059961319,0.0,0.0,0.0,0.0,0.0,0.0,0.0,0.0,0.0,0.3299291051013231,0.2380261350279657,9.791551988558847,0.0,0.0,0.0,0.0,0.0,0.0,0.0,0.0,0.0
1702623864329650629,248,1702623864329390048,base_link,-0.008337533108134523,-0.014927947936149223,-0.9789646881904875,0.2033120291281059,0.0,0.0,0.0,0.0,0.0,0.0,0.0,0.0,0.0,-0.007461518049240112,-0.009582373313605785,0.005488663911819458,0.0,0.0,0.0,0.0,0.0,0.0,0.0,0.0,0.0,0.363192347218087,0.20984184010219886,9.791019238111257,0.0,0.0,0.0,0.0,0.0,0.0,0.0,0.0,0.0
1702623864332898287,249,1702623864332648515,base_link,-0.008377671161563693,-0.014903622408629157,-0.978961123856684,0.2033293255835657,0.0,0.0,0.0,0.0,0.0,0.0,0.0,0.0,0.0,-0.007461518049240112,-0.009582373313605785,0.005488663911819458,0.0,0.0,0.0,0.0,0.0,0.0,0.0,0.0,0.0,0.363192347218087,0.20984184010219886,9.791019238111257,0.0,0.0,0.0,0.0,0.0,0.0,0.0,0.0,0.0
1702623864336351293,250,1702623864336048841,base_link,-0.008377671161563693,-0.014903622408629157,-0.978961123856684,0.2033293255835657,0.0,0.0,0.0,0.0,0.0,0.0,0.0,0.0,0.0,-0.0032005924731492996,-0.010647471994161606,0.0012276209890842438,0.0,0.0,0.0,0.0,0.0,0.0,0.0,0.0,0.0,0.2643926349506767,0.17914654857975398,9.794794691504046,0.0,0.0,0.0,0.0,0.0,0.0,0.0,0.0,0.0
1702623864339632139,251,1702623864339294910,base_link,-0.008419918595655442,-0.014898890215203638,-0.9789583870475812,0.2033411037404788,0.0,0.0,0.0,0.0,0.0,0.0,0.0,0.0,0.0,-0.0032005924731492996,-0.010647471994161606,0.0012276209890842438,0.0,0.0,0.0,0.0,0.0,0.0,0.0,0.0,0.0,0.2643926349506767,0.17914654857975398,9.794794691504046,0.0,0.0,0.0,0.0,0.0,0.0,0.0,0.0,0.0
1702623864343093329,252,1702623864342736482,base_link,-0.008419918595655442,-0.014898890215203638,-0.9789583870475812,0.2033411037404788,0.0,0.0,0.0,0.0,0.0,0.0,0.0,0.0,0.0,-0.0010701604187488556,-0.013843012973666191,-0.0009029321372509003,0.0,0.0,0.0,0.0,0.0,0.0,0.0,0.0,0.0,0.3020403311707003,0.16833969271105909,9.793897762699194,0.0,0.0,0.0,0.0,0.0,0.0,0.0,0.0,0.0
1702623864346252559,253,1702623864345960140,base_link,-0.00846826873821245,-0.014895581666706344,-0.9789569685361189,0.2033461674730064,0.0,0.0,0.0,0.0,0.0,0.0,0.0,0.0,0.0,-0.0010701604187488556,-0.013843012973666191,-0.0009029321372509003,0.0,0.0,0.0,0.0,0.0,0.0,0.0,0.0,0.0,0.3020403311707003,0.16833969271105909,9.793897762699194,0.0,0.0,0.0,0.0,0.0,0.0,0.0,0.0,0.0
1702623864349815838,254,1702623864349409341,base_link,-0.00846826873821245,-0.014895581666706344,-0.9789569685361189,0.2033461674730064,0.0,0.0,0.0,0.0,0.0,0.0,0.0,0.0,0.0,-0.00426609069108963,-0.012777505442500114,0.0001623295247554779,0.0,0.0,0.0,0.0,0.0,0.0,0.0,0.0,0.0,0.28248084996541434,0.18575067051624536,9.794166695426702,0.0,0.0,0.0,0.0,0.0,0.0,0.0,0.0,0.0
1702623864353030463,255,1702623864352622985,base_link,-0.008514897939282009,-0.014879233805622123,-0.9789553862277882,0.20335303462216464,0.0,0.0,0.0,0.0,0.0,0.0,0.0,0.0,0.0,-0.00426609069108963,-0.012777505442500114,0.0001623295247554779,0.0,0.0,0.0,0.0,0.0,0.0,0.0,0.0,0.0,0.28248084996541434,0.18575067051624536,9.794166695426702,0.0,0.0,0.0,0.0,0.0,0.0,0.0,0.0,0.0
1702623864356457735,256,1702623864356058597,base_link,-0.008514897939282009,-0.014879233805622123,-0.9789553862277882,0.20335303462216464,0.0,0.0,0.0,0.0,0.0,0.0,0.0,0.0,0.0,-0.0074620321393013,-0.007451036013662815,0.002292882651090622,0.0,0.0,0.0,0.0,0.0,0.0,0.0,0.0,0.0,0.29167507045416774,0.2682010524532774,9.791986205501852,0.0,0.0,0.0,0.0,0.0,0.0,0.0,0.0,0.0
1702623864359633350,257,1702623864359267473,base_link,-0.008551819090398767,-0.014860692092759559,-0.9789535353434764,0.20336175122003178,0.0,0.0,0.0,0.0,0.0,0.0,0.0,0.0,0.0,-0.0074620321393013,-0.007451036013662815,0.002292882651090622,0.0,0.0,0.0,0.0,0.0,0.0,0.0,0.0,0.0,0.29167507045416774,0.2682010524532774,9.791986205501852,0.0,0.0,0.0,0.0,0.0,0.0,0.0,0.0,0.0
1702623864362999878,258,1702623864362702369,base_link,-0.008551819090398767,-0.014860692092759559,-0.9789535353434764,0.20336175122003178,0.0,0.0,0.0,0.0,0.0,0.0,0.0,0.0,0.0,-0.0074621811509132385,-0.00745090376585722,0.0022929031401872635,0.0,0.0,0.0,0.0,0.0,0.0,0.0,0.0,0.0,0.2933158421860108,0.21039237019186882,9.793349828699462,0.0,0.0,0.0,0.0,0.0,0.0,0.0,0.0,0.0
1702623864366658578,259,1702623864366128206,base_link,-0.00859073558433844,-0.014843432723311619,-0.9789523440009068,0.2033671063427873,0.0,0.0,0.0,0.0,0.0,0.0,0.0,0.0,0.0,-0.0074621811509132385,-0.00745090376585722,0.0022929031401872635,0.0,0.0,0.0,0.0,0.0,0.0,0.0,0.0,0.0,0.2933158421860108,0.21039237019186882,9.793349828699462,0.0,0.0,0.0,0.0,0.0,0.0,0.0,0.0,0.0
1702623864370170369,260,1702623864369613170,base_link,-0.00859073558433844,-0.014843432723311619,-0.9789523440009068,0.2033671063427873,0.0,0.0,0.0,0.0,0.0,0.0,0.0,0.0,0.0,-0.0085276048630476,-0.006385492160916328,0.002292921766638756,0.0,0.0,0.0,0.0,0.0,0.0,0.0,0.0,0.0,0.256048875244551,0.22269829931902627,9.794122954147882,0.0,0.0,0.0,0.0,0.0,0.0,0.0,0.0,0.0
1702623864373294443,261,1702623864372776031,base_link,-0.008629510496531078,-0.01481156687286985,-0.9789499974546144,0.20337908328776388,0.0,0.0,0.0,0.0,0.0,0.0,0.0,0.0,0.0,-0.0085276048630476,-0.006385492160916328,0.002292921766638756,0.0,0.0,0.0,0.0,0.0,0.0,0.0,0.0,0.0,0.256048875244551,0.22269829931902627,9.794122954147882,0.0,0.0,0.0,0.0,0.0,0.0,0.0,0.0,0.0
1702623864376695995,262,1702623864376099348,base_link,-0.008629510496531078,-0.01481156687286985,-0.9789499974546144,0.20337908328776388,0.0,0.0,0.0,0.0,0.0,0.0,0.0,0.0,0.0,-0.011723462492227554,0.053268685936927795,0.002293005585670471,0.0,0.0,0.0,0.0,0.0,0.0,0.0,0.0,0.0,0.704184956139394,0.14692478216378554,9.773563150455063,0.0,0.0,0.0,0.0,0.0,0.0,0.0,0.0,0.0
1702623864379707312,263,1702623864379301786,base_link,-0.008580574650966781,-0.014739777413026758,-0.97894912357609,0.20339057537181682,0.0,0.0,0.0,0.0,0.0,0.0,0.0,0.0,0.0,-0.011723462492227554,0.053268685936927795,0.002293005585670471,0.0,0.0,0.0,0.0,0.0,0.0,0.0,0.0,0.0,0.704184956139394,0.14692478216378554,9.773563150455063,0.0,0.0,0.0,0.0,0.0,0.0,0.0,0.0,0.0
1702623864383104654,264,1702623864382717132,base_link,-0.008580574650966781,-0.014739777413026758,-0.97894912357609,0.20339057537181682,0.0,0.0,0.0,0.0,0.0,0.0,0.0,0.0,0.0,0.018103862181305885,-0.010646957904100418,0.005488784983754158,0.0,0.0,0.0,0.0,0.0,0.0,0.0,0.0,0.0,0.3562176413991635,0.027629230631952068,9.79348485563595,0.0,0.0,0.0,0.0,0.0,0.0,0.0,0.0,0.0
1702623864386236776,265,1702623864385961294,base_link,-0.008607162705594494,-0.014747788845437277,-0.9789462423544643,0.2034027385617126,0.0,0.0,0.0,0.0,0.0,0.0,0.0,0.0,0.0,0.018103862181305885,-0.010646957904100418,0.005488784983754158,0.0,0.0,0.0,0.0,0.0,0.0,0.0,0.0,0.0,0.3562176413991635,0.027629230631952068,9.79348485563595,0.0,0.0,0.0,0.0,0.0,0.0,0.0,0.0,0.0
1702623864389988460,266,1702623864389400482,base_link,-0.008607162705594494,-0.014747788845437277,-0.9789462423544643,0.2034027385617126,0.0,0.0,0.0,0.0,0.0,0.0,0.0,0.0,0.0,-0.017050154507160187,-0.044734880328178406,0.00335831381380558,0.0,0.0,0.0,0.0,0.0,0.0,0.0,0.0,0.0,0.2237327283290457,0.14115749302228192,9.796428850782213,0.0,0.0,0.0,0.0,0.0,0.0,0.0,0.0,0.0
1702623864389995577,267,1702623864389654874,base_link,-0.008697340851406301,-0.014688059301176545,-0.9789450763447738,0.20340883627906794,0.0,0.0,0.0,0.0,0.0,0.0,0.0,0.0,0.0,-0.017050154507160187,-0.044734880328178406,0.00335831381380558,0.0,0.0,0.0,0.0,0.0,0.0,0.0,0.0,0.0,0.2237327283290457,0.14115749302228192,9.796428850782213,0.0,0.0,0.0,0.0,0.0,0.0,0.0,0.0,0.0
1702623864396786410,268,1702623864396036148,base_link,-0.008697340851406301,-0.014688059301176545,-0.9789450763447738,0.20340883627906794,0.0,0.0,0.0,0.0,0.0,0.0,0.0,0.0,0.0,-0.0213115606456995,-0.027690386399626732,0.00655424315482378,0.0,0.0,0.0,0.0,0.0,0.0,0.0,0.0,0.0,0.3702441734386833,0.10877096994688647,9.792399508196729,0.0,0.0,0.0,0.0,0.0,0.0,0.0,0.0,0.0
1702623864396795440,269,1702623864396282196,base_link,-0.008760234292058976,-0.014620830628654926,-0.9789424502768531,0.20342361871923123,0.0,0.0,0.0,0.0,0.0,0.0,0.0,0.0,0.0,-0.0213115606456995,-0.027690386399626732,0.00655424315482378,0.0,0.0,0.0,0.0,0.0,0.0,0.0,0.0,0.0,0.3702441734386833,0.10877096994688647,9.792399508196729,0.0,0.0,0.0,0.0,0.0,0.0,0.0,0.0,0.0
1702623864399827847,270,1702623864399411201,base_link,-0.008760234292058976,-0.014620830628654926,-0.9789424502768531,0.20342361871923123,0.0,0.0,0.0,0.0,0.0,0.0,0.0,0.0,0.0,-0.004267474636435509,0.021311428397893906,0.002293270081281662,0.0,0.0,0.0,0.0,0.0,0.0,0.0,0.0,0.0,0.4314623761600999,0.11354272812925616,9.789839031712791,0.0,0.0,0.0,0.0,0.0,0.0,0.0,0.0,0.0
1702623864402991238,271,1702623864402608633,base_link,-0.008674301161232696,-0.014594586838664134,-0.9789413957610557,0.20343426014260577,0.0,0.0,0.0,0.0,0.0,0.0,0.0,0.0,0.0,-0.004267474636435509,0.021311428397893906,0.002293270081281662,0.0,0.0,0.0,0.0,0.0,0.0,0.0,0.0,0.0,0.4314623761600999,0.11354272812925616,9.789839031712791,0.0,0.0,0.0,0.0,0.0,0.0,0.0,0.0,0.0
1702623864406140687,272,1702623864405939102,base_link,-0.008674301161232696,-0.014594586838664134,-0.9789413957610557,0.20343426014260577,0.0,0.0,0.0,0.0,0.0,0.0,0.0,0.0,0.0,0.021299118176102638,0.04048518091440201,0.0012279320508241653,0.0,0.0,0.0,0.0,0.0,0.0,0.0,0.0,0.0,0.39597093406618,0.14216116862585151,9.790965081211846,0.0,0.0,0.0,0.0,0.0,0.0,0.0,0.0,0.0
1702623864409476664,273,1702623864409249305,base_link,-0.008535182497739232,-0.014637738148084162,-0.9789406767917321,0.2034405038437132,0.0,0.0,0.0,0.0,0.0,0.0,0.0,0.0,0.0,0.021299118176102638,0.04048518091440201,0.0012279320508241653,0.0,0.0,0.0,0.0,0.0,0.0,0.0,0.0,0.0,0.39597093406618,0.14216116862585151,9.790965081211846,0.0,0.0,0.0,0.0,0.0,0.0,0.0,0.0,0.0
1702623864413204203,274,1702623864412704944,base_link,-0.008535182497739232,-0.014637738148084162,-0.9789406767917321,0.2034405038437132,0.0,0.0,0.0,0.0,0.0,0.0,0.0,0.0,0.0,0.009581427089869976,0.0010698512196540833,0.00016254186630249023,0.0,0.0,0.0,0.0,0.0,0.0,0.0,0.0,0.0,0.2158500486703699,0.2298494040004204,9.794926135911881,0.0,0.0,0.0,0.0,0.0,0.0,0.0,0.0,0.0
1702623864416223576,275,1702623864415955543,base_link,-0.008537741862279503,-0.014649188577375115,-0.9789392621359173,0.2034463793895166,0.0,0.0,0.0,0.0,0.0,0.0,0.0,0.0,0.0,0.009581427089869976,0.0010698512196540833,0.00016254186630249023,0.0,0.0,0.0,0.0,0.0,0.0,0.0,0.0,0.0,0.2158500486703699,0.2298494040004204,9.794926135911881,0.0,0.0,0.0,0.0,0.0,0.0,0.0,0.0,0.0
1702623864419836715,276,1702623864419410467,base_link,-0.008537741862279503,-0.014649188577375115,-0.9789392621359173,0.2034463793895166,0.0,0.0,0.0,0.0,0.0,0.0,0.0,0.0,0.0,-0.015985069796442986,0.0053308382630348206,-0.0009026862680912018,0.0,0.0,0.0,0.0,0.0,0.0,0.0,0.0,0.0,0.27105133303783874,0.3012950753353844,9.791616437158734,0.0,0.0,0.0,0.0,0.0,0.0,0.0,0.0,0.0
1702623864422995845,277,1702623864422637939,base_link,-0.008555956639978643,-0.01462449329633685,-0.9789380051418881,0.2034534391221273,0.0,0.0,0.0,0.0,0.0,0.0,0.0,0.0,0.0,-0.015985069796442986,0.0053308382630348206,-0.0009026862680912018,0.0,0.0,0.0,0.0,0.0,0.0,0.0,0.0,0.0,0.27105133303783874,0.3012950753353844,9.791616437158734,0.0,0.0,0.0,0.0,0.0,0.0,0.0,0.0,0.0
1702623864426529341,278,1702623864426057100,base_link,-0.008555956639978643,-0.01462449329633685,-0.9789380051418881,0.2034534391221273,0.0,0.0,0.0,0.0,0.0,0.0,0.0,0.0,0.0,0.002124355174601078,-0.004256444051861763,0.0012278258800506592,0.0,0.0,0.0,0.0,0.0,0.0,0.0,0.0,0.0,0.2921115530573629,0.33033521972911645,9.790074028482978,0.0,0.0,0.0,0.0,0.0,0.0,0.0,0.0,0.0
1702623864429567539,279,1702623864429281234,base_link,-0.00855894894744666,-0.014647673912217156,-0.9789371979032853,0.20345552979248496,0.0,0.0,0.0,0.0,0.0,0.0,0.0,0.0,0.0,0.002124355174601078,-0.004256444051861763,0.0012278258800506592,0.0,0.0,0.0,0.0,0.0,0.0,0.0,0.0,0.0,0.2921115530573629,0.33033521972911645,9.790074028482978,0.0,0.0,0.0,0.0,0.0,0.0,0.0,0.0,0.0
1702623864433193699,280,1702623864432762384,base_link,-0.00855894894744666,-0.014647673912217156,-0.9789371979032853,0.20345552979248496,0.0,0.0,0.0,0.0,0.0,0.0,0.0,0.0,0.0,-0.002136731520295143,0.004265572875738144,0.0012277867645025253,0.0,0.0,0.0,0.0,0.0,0.0,0.0,0.0,0.0,0.23766166917191758,0.28753980779165844,9.792897313356326,0.0,0.0,0.0,0.0,0.0,0.0,0.0,0.0,0.0
1702623864436294212,281,1702623864435976505,base_link,-0.008548952077880277,-0.014639347794724686,-0.9789361712478581,0.20346148907618647,0.0,0.0,0.0,0.0,0.0,0.0,0.0,0.0,0.0,-0.002136731520295143,0.004265572875738144,0.0012277867645025253,0.0,0.0,0.0,0.0,0.0,0.0,0.0,0.0,0.0,0.23766166917191758,0.28753980779165844,9.792897313356326,0.0,0.0,0.0,0.0,0.0,0.0,0.0,0.0,0.0
1702623864439660855,282,1702623864439398765,base_link,-0.008548952077880277,-0.014639347794724686,-0.9789361712478581,0.20346148907618647,0.0,0.0,0.0,0.0,0.0,0.0,0.0,0.0,0.0,-0.002136796712875366,0.00533064641058445,0.002293061465024948,0.0,0.0,0.0,0.0,0.0,0.0,0.0,0.0,0.0,0.30505812643851726,0.2767710659197757,9.791339914259105,0.0,0.0,0.0,0.0,0.0,0.0,0.0,0.0,0.0
1702623864442909814,283,1702623864442625522,base_link,-0.008551129320758265,-0.014634224079734255,-0.9789339332778262,0.2034725336504373,0.0,0.0,0.0,0.0,0.0,0.0,0.0,0.0,0.0,-0.002136796712875366,0.00533064641058445,0.002293061465024948,0.0,0.0,0.0,0.0,0.0,0.0,0.0,0.0,0.0,0.30505812643851726,0.2767710659197757,9.791339914259105,0.0,0.0,0.0,0.0,0.0,0.0,0.0,0.0,0.0
1702623864446428775,284,1702623864446047782,base_link,-0.008551129320758265,-0.014634224079734255,-0.9789339332778262,0.2034725336504373,0.0,0.0,0.0,0.0,0.0,0.0,0.0,0.0,0.0,0.0031894780695438385,-0.0010609403252601624,-0.0019680336117744446,0.0,0.0,0.0,0.0,0.0,0.0,0.0,0.0,0.0,0.267948143093442,0.1901632090732062,9.794490377070558,0.0,0.0,0.0,0.0,0.0,0.0,0.0,0.0,0.0
1702623864450117543,285,1702623864449465513,base_link,-0.008565231207849345,-0.014637422921161436,-0.9789340296306914,0.20347124685222612,0.0,0.0,0.0,0.0,0.0,0.0,0.0,0.0,0.0,0.0031894780695438385,-0.0010609403252601624,-0.0019680336117744446,0.0,0.0,0.0,0.0,0.0,0.0,0.0,0.0,0.0,0.267948143093442,0.1901632090732062,9.794490377070558,0.0,0.0,0.0,0.0,0.0,0.0,0.0,0.0,0.0
1702623864453183942,286,1702623864452764511,base_link,-0.008565231207849345,-0.014637422921161436,-0.9789340296306914,0.20347124685222612,0.0,0.0,0.0,0.0,0.0,0.0,0.0,0.0,0.0,-0.002136915922164917,-0.0010609328746795654,0.0033582746982574463,0.0,0.0,0.0,0.0,0.0,0.0,0.0,0.0,0.0,0.3322374701404409,0.21112058125509175,9.792091010790555,0.0,0.0,0.0,0.0,0.0,0.0,0.0,0.0,0.0
1702623864456311970,287,1702623864455975770,base_link,-0.008581679595227591,-0.014625744162564078,-0.9789332450662028,0.20347516823231712,0.0,0.0,0.0,0.0,0.0,0.0,0.0,0.0,0.0,-0.002136915922164917,-0.0010609328746795654,0.0033582746982574463,0.0,0.0,0.0,0.0,0.0,0.0,0.0,0.0,0.0,0.3322374701404409,0.21112058125509175,9.792091010790555,0.0,0.0,0.0,0.0,0.0,0.0,0.0,0.0,0.0
1702623864459791046,288,1702623864459415435,base_link,-0.008581679595227591,-0.014625744162564078,-0.9789332450662028,0.20347516823231712,0.0,0.0,0.0,0.0,0.0,0.0,0.0,0.0,0.0,-0.003202281892299652,4.319474101066589e-06,0.004423540085554123,0.0,0.0,0.0,0.0,0.0,0.0,0.0,0.0,0.0,0.35447556594727697,0.1782465961612783,9.791964829598976,0.0,0.0,0.0,0.0,0.0,0.0,0.0,0.0,0.0
1702623864463135827,289,1702623864462692975,base_link,-0.008597542405107543,-0.01461440574087516,-0.9789306450242791,0.20348782185129013,0.0,0.0,0.0,0.0,0.0,0.0,0.0,0.0,0.0,-0.003202281892299652,4.319474101066589e-06,0.004423540085554123,0.0,0.0,0.0,0.0,0.0,0.0,0.0,0.0,0.0,0.35447556594727697,0.1782465961612783,9.791964829598976,0.0,0.0,0.0,0.0,0.0,0.0,0.0,0.0,0.0
1702623864466598510,290,1702623864466123819,base_link,-0.008597542405107543,-0.01461440574087516,-0.9789306450242791,0.20348782185129013,0.0,0.0,0.0,0.0,0.0,0.0,0.0,0.0,0.0,-0.0021371114999055862,-0.005321933887898922,0.00016247108578681946,0.0,0.0,0.0,0.0,0.0,0.0,0.0,0.0,0.0,0.2869914320186073,0.1455170594716555,9.794715958278253,0.0,0.0,0.0,0.0,0.0,0.0,0.0,0.0,0.0
1702623864469699089,291,1702623864469344854,base_link,-0.00862476654477116,-0.014605281329394485,-0.978930841374262,0.20348638029513616,0.0,0.0,0.0,0.0,0.0,0.0,0.0,0.0,0.0,-0.0021371114999055862,-0.005321933887898922,0.00016247108578681946,0.0,0.0,0.0,0.0,0.0,0.0,0.0,0.0,0.0,0.2869914320186073,0.1455170594716555,9.794715958278253,0.0,0.0,0.0,0.0,0.0,0.0,0.0,0.0,0.0
1702623864473173617,292,1702623864472775220,base_link,-0.00862476654477116,-0.014605281329394485,-0.978930841374262,0.20348638029513616,0.0,0.0,0.0,0.0,0.0,0.0,0.0,0.0,0.0,-0.0010719504207372665,-0.00532181654125452,0.0033582448959350586,0.0,0.0,0.0,0.0,0.0,0.0,0.0,0.0,0.0,0.3397243552132392,0.1473266612567927,9.793001695974421,0.0,0.0,0.0,0.0,0.0,0.0,0.0,0.0,0.0
1702623864476430832,293,1702623864475980520,base_link,-0.008650858644333695,-0.014600667915404753,-0.9789291834310289,0.20349357967316567,0.0,0.0,0.0,0.0,0.0,0.0,0.0,0.0,0.0,-0.0010719504207372665,-0.00532181654125452,0.0033582448959350586,0.0,0.0,0.0,0.0,0.0,0.0,0.0,0.0,0.0,0.3397243552132392,0.1473266612567927,9.793001695974421,0.0,0.0,0.0,0.0,0.0,0.0,0.0,0.0,0.0
1702623864479824841,294,1702623864479417324,base_link,-0.008650858644333695,-0.014600667915404753,-0.9789291834310289,0.20349357967316567,0.0,0.0,0.0,0.0,0.0,0.0,0.0,0.0,0.0,-0.004267845302820206,-0.0010607093572616577,0.0012277066707611084,0.0,0.0,0.0,0.0,0.0,0.0,0.0,0.0,0.0,0.3128365900663546,0.1538099254466207,9.793797821823247,0.0,0.0,0.0,0.0,0.0,0.0,0.0,0.0,0.0
1702623864483048216,295,1702623864482640027,base_link,-0.008671823403840212,-0.01457860194586916,-0.9789277685836837,0.20350107552523242,0.0,0.0,0.0,0.0,0.0,0.0,0.0,0.0,0.0,-0.004267845302820206,-0.0010607093572616577,0.0012277066707611084,0.0,0.0,0.0,0.0,0.0,0.0,0.0,0.0,0.0,0.3128365900663546,0.1538099254466207,9.793797821823247,0.0,0.0,0.0,0.0,0.0,0.0,0.0,0.0,0.0
1702623864486415856,296,1702623864486089468,base_link,-0.008671823403840212,-0.01457860194586916,-0.9789277685836837,0.20350107552523242,0.0,0.0,0.0,0.0,0.0,0.0,0.0,0.0,0.0,-0.0032027140259742737,-0.0010606758296489716,-0.0009028129279613495,0.0,0.0,0.0,0.0,0.0,0.0,0.0,0.0,0.0,0.3209573077450873,0.14495154783394648,9.79367017289155,0.0,0.0,0.0,0.0,0.0,0.0,0.0,0.0,0.0
1702623864489964540,297,1702623864489488840,base_link,-0.008672110547520605,-0.014566257493052133,-0.9789292770039014,0.203494691001796,0.0,0.0,0.0,0.0,0.0,0.0,0.0,0.0,0.0,-0.0032027140259742737,-0.0010606758296489716,-0.0009028129279613495,0.0,0.0,0.0,0.0,0.0,0.0,0.0,0.0,0.0,0.3209573077450873,0.14495154783394648,9.79367017289155,0.0,0.0,0.0,0.0,0.0,0.0,0.0,0.0,0.0
1702623864493396385,298,1702623864492873668,base_link,-0.008672110547520605,-0.014566257493052133,-0.9789292770039014,0.203494691001796,0.0,0.0,0.0,0.0,0.0,0.0,0.0,0.0,0.0,-0.0010722633451223373,0.0063960254192352295,0.00016242824494838715,0.0,0.0,0.0,0.0,0.0,0.0,0.0,0.0,0.0,0.397282508675311,0.16633463803648196,9.790531109009866,0.0,0.0,0.0,0.0,0.0,0.0,0.0,0.0,0.0
1702623864496304947,299,1702623864495994091,base_link,-0.008646090771263158,-0.014558479545978057,-0.9789286530756792,0.20349935620321055,0.0,0.0,0.0,0.0,0.0,0.0,0.0,0.0,0.0,-0.0010722633451223373,0.0063960254192352295,0.00016242824494838715,0.0,0.0,0.0,0.0,0.0,0.0,0.0,0.0,0.0,0.397282508675311,0.16633463803648196,9.790531109009866,0.0,0.0,0.0,0.0,0.0,0.0,0.0,0.0,0.0
1702623864499853695,300,1702623864499480724,base_link,-0.008646090771263158,-0.014558479545978057,-0.9789286530756792,0.20349935620321055,0.0,0.0,0.0,0.0,0.0,0.0,0.0,0.0,0.0,0.00425410270690918,0.017048243433237076,0.00016239285469055176,0.0,0.0,0.0,0.0,0.0,0.0,0.0,0.0,0.0,0.3323246256313935,0.1742106806078539,9.792814252397578,0.0,0.0,0.0,0.0,0.0,0.0,0.0,0.0,0.0
1702623864502958101,301,1702623864502671718,base_link,-0.008606413306686479,-0.014555479296166851,-0.9789284149252613,0.2035023983258398,0.0,0.0,0.0,0.0,0.0,0.0,0.0,0.0,0.0,0.00425410270690918,0.017048243433237076,0.00016239285469055176,0.0,0.0,0.0,0.0,0.0,0.0,0.0,0.0,0.0,0.3323246256313935,0.1742106806078539,9.792814252397578,0.0,0.0,0.0,0.0,0.0,0.0,0.0,0.0,0.0
1702623864506379163,302,1702623864506076097,base_link,-0.008606413306686479,-0.014555479296166851,-0.9789284149252613,0.2035023983258398,0.0,0.0,0.0,0.0,0.0,0.0,0.0,0.0,0.0,-0.002137480303645134,0.01811310462653637,0.001227647066116333,0.0,0.0,0.0,0.0,0.0,0.0,0.0,0.0,0.0,0.3604012609272826,0.22376987398858533,9.790813958737912,0.0,0.0,0.0,0.0,0.0,0.0,0.0,0.0,0.0
1702623864509632851,303,1702623864509314298,base_link,-0.008567777802849383,-0.014533026593648276,-0.978928468429475,0.20350537589919274,0.0,0.0,0.0,0.0,0.0,0.0,0.0,0.0,0.0,-0.002137480303645134,0.01811310462653637,0.001227647066116333,0.0,0.0,0.0,0.0,0.0,0.0,0.0,0.0,0.0,0.3604012609272826,0.22376987398858533,9.790813958737912,0.0,0.0,0.0,0.0,0.0,0.0,0.0,0.0,0.0
1702623864513032713,304,1702623864512741565,base_link,-0.008567777802849383,-0.014533026593648276,-0.978928468429475,0.20350537589919274,0.0,0.0,0.0,0.0,0.0,0.0,0.0,0.0,0.0,-0.0010722577571868896,0.018112702295184135,0.0001623891294002533,0.0,0.0,0.0,0.0,0.0,0.0,0.0,0.0,0.0,0.37856108854604675,0.20815715210830185,9.790473027503063,0.0,0.0,0.0,0.0,0.0,0.0,0.0,0.0,0.0
1702623864516376363,305,1702623864516011953,base_link,-0.008523404751200453,-0.014522395313632638,-0.9789290830163372,0.20350504178175804,0.0,0.0,0.0,0.0,0.0,0.0,0.0,0.0,0.0,-0.0010722577571868896,0.018112702295184135,0.0001623891294002533,0.0,0.0,0.0,0.0,0.0,0.0,0.0,0.0,0.0,0.37856108854604675,0.20815715210830185,9.790473027503063,0.0,0.0,0.0,0.0,0.0,0.0,0.0,0.0,0.0
1702623864519928690,306,1702623864519510746,base_link,-0.008523404751200453,-0.014522395313632638,-0.9789290830163372,0.20350504178175804,0.0,0.0,0.0,0.0,0.0,0.0,0.0,0.0,0.0,0.0042541008442640305,0.014916505664587021,0.0033581480383872986,0.0,0.0,0.0,0.0,0.0,0.0,0.0,0.0,0.0,0.35044860864963656,0.22078091010982417,9.791243106083446,0.0,0.0,0.0,0.0,0.0,0.0,0.0,0.0,0.0
1702623864523035702,307,1702623864522665262,base_link,-0.008476531795625531,-0.014543530256458546,-0.9789271492507767,0.20351479208191403,0.0,0.0,0.0,0.0,0.0,0.0,0.0,0.0,0.0,0.0042541008442640305,0.014916505664587021,0.0033581480383872986,0.0,0.0,0.0,0.0,0.0,0.0,0.0,0.0,0.0,0.35044860864963656,0.22078091010982417,9.791243106083446,0.0,0.0,0.0,0.0,0.0,0.0,0.0,0.0,0.0
1702623864526563445,308,1702623864526159524,base_link,-0.008476531795625531,-0.014543530256458546,-0.9789271492507767,0.20351479208191403,0.0,0.0,0.0,0.0,0.0,0.0,0.0,0.0,0.0,0.023429056629538536,0.009589837864041328,0.00016221590340137482,0.0,0.0,0.0,0.0,0.0,0.0,0.0,0.0,0.0,0.4372180908314125,0.5051815989831847,9.777199593600335,0.0,0.0,0.0,0.0,0.0,0.0,0.0,0.0,0.0
1702623864529557952,309,1702623864529297351,base_link,-0.008414130037578264,-0.014556400095522129,-0.9789261098304447,0.203521461089984,0.0,0.0,0.0,0.0,0.0,0.0,0.0,0.0,0.0,0.023429056629538536,0.009589837864041328,0.00016221590340137482,0.0,0.0,0.0,0.0,0.0,0.0,0.0,0.0,0.0,0.4372180908314125,0.5051815989831847,9.777199593600335,0.0,0.0,0.0,0.0,0.0,0.0,0.0,0.0,0.0
1702623864533144590,310,1702623864532768249,base_link,-0.008414130037578264,-0.014556400095522129,-0.9789261098304447,0.203521461089984,0.0,0.0,0.0,0.0,0.0,0.0,0.0,0.0,0.0,-0.01811639592051506,-0.0053242044523358345,0.00122755765914917,0.0,0.0,0.0,0.0,0.0,0.0,0.0,0.0,0.0,0.11677369747172961,-0.07175606947316404,9.799041533235409,0.0,0.0,0.0,0.0,0.0,0.0,0.0,0.0,0.0
1702623864536393556,311,1702623864536068439,base_link,-0.008342016700960981,-0.014495672643315166,-0.9789244364548082,0.20353681225668965,0.0,0.0,0.0,0.0,0.0,0.0,0.0,0.0,0.0,-0.01811639592051506,-0.0053242044523358345,0.00122755765914917,0.0,0.0,0.0,0.0,0.0,0.0,0.0,0.0,0.0,0.11677369747172961,-0.07175606947316404,9.799041533235409,0.0,0.0,0.0,0.0,0.0,0.0,0.0,0.0,0.0
1702623864539727456,312,1702623864539417743,base_link,-0.008342016700960981,-0.014495672643315166,-0.9789244364548082,0.20353681225668965,0.0,0.0,0.0,0.0,0.0,0.0,0.0,0.0,0.0,-0.005333203822374344,-0.019173236563801765,0.006553933955729008,0.0,0.0,0.0,0.0,0.0,0.0,0.0,0.0,0.0,0.11267993150360804,0.2433875414764516,9.796329197086552,0.0,0.0,0.0,0.0,0.0,0.0,0.0,0.0,0.0
1702623864542899459,313,1702623864542635679,base_link,-0.008384893923171696,-0.0144798756629472,-0.9789215552899778,0.20355003154834847,0.0,0.0,0.0,0.0,0.0,0.0,0.0,0.0,0.0,-0.005333203822374344,-0.019173236563801765,0.006553933955729008,0.0,0.0,0.0,0.0,0.0,0.0,0.0,0.0,0.0,0.11267993150360804,0.2433875414764516,9.796329197086552,0.0,0.0,0.0,0.0,0.0,0.0,0.0,0.0,0.0
1702623864546340962,314,1702623864546061515,base_link,-0.008384893923171696,-0.0144798756629472,-0.9789215552899778,0.20355003154834847,0.0,0.0,0.0,0.0,0.0,0.0,0.0,0.0,0.0,-0.01492074690759182,1.4957040548324585e-06,0.00761927105486393,0.0,0.0,0.0,0.0,0.0,0.0,0.0,0.0,0.0,0.22029208235230088,0.16781073145871467,9.79608651232012,0.0,0.0,0.0,0.0,0.0,0.0,0.0,0.0,0.0
1702623864549876974,315,1702623864549452066,base_link,-0.008415399805207245,-0.014408327698989688,-0.978915647006299,0.2035822614700896,0.0,0.0,0.0,0.0,0.0,0.0,0.0,0.0,0.0,-0.01492074690759182,1.4957040548324585e-06,0.00761927105486393,0.0,0.0,0.0,0.0,0.0,0.0,0.0,0.0,0.0,0.22029208235230088,0.16781073145871467,9.79608651232012,0.0,0.0,0.0,0.0,0.0,0.0,0.0,0.0,0.0
1702623864553599920,316,1702623864552908897,base_link,-0.008415399805207245,-0.014408327698989688,-0.978915647006299,0.2035822614700896,0.0,0.0,0.0,0.0,0.0,0.0,0.0,0.0,0.0,-0.013855654746294022,-0.008520649746060371,0.011880473233759403,0.0,0.0,0.0,0.0,0.0,0.0,0.0,0.0,0.0,0.23563423521214566,0.18586234151742695,9.795403600526202,0.0,0.0,0.0,0.0,0.0,0.0,0.0,0.0,0.0
1702623864553628486,317,1702623864553255319,base_link,-0.008448468603690439,-0.014370672515078299,-0.9789084858417391,0.20361798421738347,0.0,0.0,0.0,0.0,0.0,0.0,0.0,0.0,0.0,-0.013855654746294022,-0.008520649746060371,0.011880473233759403,0.0,0.0,0.0,0.0,0.0,0.0,0.0,0.0,0.0,0.23563423521214566,0.18586234151742695,9.795403600526202,0.0,0.0,0.0,0.0,0.0,0.0,0.0,0.0,0.0
1702623864560177396,318,1702623864559485912,base_link,-0.008448468603690439,-0.014370672515078299,-0.9789084858417391,0.20361798421738347,0.0,0.0,0.0,0.0,0.0,0.0,0.0,0.0,0.0,-0.0010724924504756927,-0.0042596738785505295,0.009749977849423885,0.0,0.0,0.0,0.0,0.0,0.0,0.0,0.0,0.0,0.3744710605732203,0.24737844566874612,9.789717837068222,0.0,0.0,0.0,0.0,0.0,0.0,0.0,0.0,0.0
1702623864560186939,319,1702623864559826612,base_link,-0.008476334895101311,-0.014357251339393006,-0.9789037610511581,0.2036404863494014,0.0,0.0,0.0,0.0,0.0,0.0,0.0,0.0,0.0,-0.0010724924504756927,-0.0042596738785505295,0.009749977849423885,0.0,0.0,0.0,0.0,0.0,0.0,0.0,0.0,0.0,0.3744710605732203,0.24737844566874612,9.789717837068222,0.0,0.0,0.0,0.0,0.0,0.0,0.0,0.0,0.0
1702623864567003764,320,1702623864566207408,base_link,-0.008476334895101311,-0.014357251339393006,-0.9789037610511581,0.2036404863494014,0.0,0.0,0.0,0.0,0.0,0.0,0.0,0.0,0.0,-0.013855833560228348,-0.014912153594195843,0.006554239429533482,0.0,0.0,0.0,0.0,0.0,0.0,0.0,0.0,0.0,0.27413111532016127,0.21126979726934833,9.7938867261356,0.0,0.0,0.0,0.0,0.0,0.0,0.0,0.0,0.0
1702623864567163737,321,1702623864566559076,base_link,-0.00852495299850446,-0.01431377953099387,-0.9789011693080393,0.20365397521105455,0.0,0.0,0.0,0.0,0.0,0.0,0.0,0.0,0.0,-0.013855833560228348,-0.014912153594195843,0.006554239429533482,0.0,0.0,0.0,0.0,0.0,0.0,0.0,0.0,0.0,0.27413111532016127,0.21126979726934833,9.7938867261356,0.0,0.0,0.0,0.0,0.0,0.0,0.0,0.0,0.0
1702623864569995242,322,1702623864569505214,base_link,-0.00852495299850446,-0.01431377953099387,-0.9789011693080393,0.20365397521105455,0.0,0.0,0.0,0.0,0.0,0.0,0.0,0.0,0.0,-0.011725539341568947,-0.015977220609784126,0.0022932440042495728,0.0,0.0,0.0,0.0,0.0,0.0,0.0,0.0,0.0,0.32604386040091077,0.14176218411932878,9.793548840142096,0.0,0.0,0.0,0.0,0.0,0.0,0.0,0.0,0.0
1702623864573123756,323,1702623864572746276,base_link,-0.008584329643224293,-0.014284923187467283,-0.9788997093642747,0.20366052455162534,0.0,0.0,0.0,0.0,0.0,0.0,0.0,0.0,0.0,-0.011725539341568947,-0.015977220609784126,0.0022932440042495728,0.0,0.0,0.0,0.0,0.0,0.0,0.0,0.0,0.0,0.32604386040091077,0.14176218411932878,9.793548840142096,0.0,0.0,0.0,0.0,0.0,0.0,0.0,0.0,0.0
1702623864576405540,324,1702623864576099872,base_link,-0.008584329643224293,-0.014284923187467283,-0.9788997093642747,0.20366052455162534,0.0,0.0,0.0,0.0,0.0,0.0,0.0,0.0,0.0,-0.009595206007361412,-0.010650662705302238,0.0022932738065719604,0.0,0.0,0.0,0.0,0.0,0.0,0.0,0.0,0.0,0.2792314559708263,0.14522718654938002,9.794944556161786,0.0,0.0,0.0,0.0,0.0,0.0,0.0,0.0,0.0
1702623864579581629,325,1702623864579300165,base_link,-0.008611094074948502,-0.014261471062202474,-0.978897572992399,0.20367130650036439,0.0,0.0,0.0,0.0,0.0,0.0,0.0,0.0,0.0,-0.009595206007361412,-0.010650662705302238,0.0022932738065719604,0.0,0.0,0.0,0.0,0.0,0.0,0.0,0.0,0.0,0.2792314559708263,0.14522718654938002,9.794944556161786,0.0,0.0,0.0,0.0,0.0,0.0,0.0,0.0,0.0
1702623864583216348,326,1702623864582758903,base_link,-0.008611094074948502,-0.014261471062202474,-0.978897572992399,0.20367130650036439,0.0,0.0,0.0,0.0,0.0,0.0,0.0,0.0,0.0,0.002122667618095875,0.0021324045956134796,0.0022932589054107666,0.0,0.0,0.0,0.0,0.0,0.0,0.0,0.0,0.0,0.3585328153544642,0.1436002299976481,9.792386491262416,0.0,0.0,0.0,0.0,0.0,0.0,0.0,0.0,0.0
1702623864586424599,327,1702623864586043119,base_link,-0.008590627247487909,-0.014258767198635211,-0.9788968815910223,0.20367568311617784,0.0,0.0,0.0,0.0,0.0,0.0,0.0,0.0,0.0,0.002122667618095875,0.0021324045956134796,0.0022932589054107666,0.0,0.0,0.0,0.0,0.0,0.0,0.0,0.0,0.0,0.3585328153544642,0.1436002299976481,9.792386491262416,0.0,0.0,0.0,0.0,0.0,0.0,0.0,0.0,0.0
1702623864589989172,328,1702623864589555501,base_link,-0.008590627247487909,-0.014258767198635211,-0.9788968815910223,0.20367568311617784,0.0,0.0,0.0,0.0,0.0,0.0,0.0,0.0,0.0,-0.004268946126103401,0.01384991966187954,0.0012279897928237915,0.0,0.0,0.0,0.0,0.0,0.0,0.0,0.0,0.0,0.31105333229474785,0.23798462296349768,9.792170808544002,0.0,0.0,0.0,0.0,0.0,0.0,0.0,0.0,0.0
1702623864593069672,329,1702623864592696666,base_link,-0.008561704490876471,-0.014228422082158312,-0.9788970102399668,0.2036784047573956,0.0,0.0,0.0,0.0,0.0,0.0,0.0,0.0,0.0,-0.004268946126103401,0.01384991966187954,0.0012279897928237915,0.0,0.0,0.0,0.0,0.0,0.0,0.0,0.0,0.0,0.31105333229474785,0.23798462296349768,9.792170808544002,0.0,0.0,0.0,0.0,0.0,0.0,0.0,0.0,0.0
1702623864596389994,330,1702623864596096038,base_link,-0.008561704490876471,-0.014228422082158312,-0.9788970102399668,0.2036784047573956,0.0,0.0,0.0,0.0,0.0,0.0,0.0,0.0,0.0,-0.012791214510798454,0.012784313410520554,0.00016278959810733795,0.0,0.0,0.0,0.0,0.0,0.0,0.0,0.0,0.0,0.19013859854204382,0.16153231266211712,9.796823700838475,0.0,0.0,0.0,0.0,0.0,0.0,0.0,0.0,0.0
1702623864599855649,331,1702623864599451541,base_link,-0.00853947208515689,-0.014171968116496762,-0.9788971495957804,0.20368260418962705,0.0,0.0,0.0,0.0,0.0,0.0,0.0,0.0,0.0,-0.012791214510798454,0.012784313410520554,0.00016278959810733795,0.0,0.0,0.0,0.0,0.0,0.0,0.0,0.0,0.0,0.19013859854204382,0.16153231266211712,9.796823700838475,0.0,0.0,0.0,0.0,0.0,0.0,0.0,0.0,0.0
1702623864603210219,332,1702623864602809906,base_link,-0.00853947208515689,-0.014171968116496762,-0.9788971495957804,0.20368260418962705,0.0,0.0,0.0,0.0,0.0,0.0,0.0,0.0,0.0,-0.011726181954145432,-0.004259968176484108,-0.0009023994207382202,0.0,0.0,0.0,0.0,0.0,0.0,0.0,0.0,0.0,0.2610876171333753,0.3035152298217184,9.791818613589914,0.0,0.0,0.0,0.0,0.0,0.0,0.0,0.0,0.0
1702623864606338659,333,1702623864606003522,base_link,-0.008553698916585953,-0.014128936986449863,-0.9788961983332988,0.20368956837082336,0.0,0.0,0.0,0.0,0.0,0.0,0.0,0.0,0.0,-0.011726181954145432,-0.004259968176484108,-0.0009023994207382202,0.0,0.0,0.0,0.0,0.0,0.0,0.0,0.0,0.0,0.2610876171333753,0.3035152298217184,9.791818613589914,0.0,0.0,0.0,0.0,0.0,0.0,0.0,0.0,0.0
1702623864609693147,334,1702623864609406709,base_link,-0.008553698916585953,-0.014128936986449863,-0.9788961983332988,0.20368956837082336,0.0,0.0,0.0,0.0,0.0,0.0,0.0,0.0,0.0,-0.022379068657755852,0.0010661948472261429,0.0022935234010219574,0.0,0.0,0.0,0.0,0.0,0.0,0.0,0.0,0.0,0.3104040050988578,0.2076095834934097,9.792882497735807,0.0,0.0,0.0,0.0,0.0,0.0,0.0,0.0,0.0
1702623864612891759,335,1702623864612627983,base_link,-0.008574382725052105,-0.014056792861994991,-0.9788962562098883,0.20369341205248628,0.0,0.0,0.0,0.0,0.0,0.0,0.0,0.0,0.0,-0.022379068657755852,0.0010661948472261429,0.0022935234010219574,0.0,0.0,0.0,0.0,0.0,0.0,0.0,0.0,0.0,0.3104040050988578,0.2076095834934097,9.792882497735807,0.0,0.0,0.0,0.0,0.0,0.0,0.0,0.0,0.0
1702623864616458036,336,1702623864616123199,base_link,-0.008574382725052105,-0.014056792861994991,-0.9788962562098883,0.20369341205248628,0.0,0.0,0.0,0.0,0.0,0.0,0.0,0.0,0.0,-0.017053009942173958,0.0010661222040653229,0.0033588968217372894,0.0,0.0,0.0,0.0,0.0,0.0,0.0,0.0,0.0,0.30255973492136334,0.2328540924630681,9.79256026677536,0.0,0.0,0.0,0.0,0.0,0.0,0.0,0.0,0.0
1702623864619733689,337,1702623864619399785,base_link,-0.00858711447870049,-0.014009427683018461,-0.9788945999331617,0.2037040981978983,0.0,0.0,0.0,0.0,0.0,0.0,0.0,0.0,0.0,-0.017053009942173958,0.0010661222040653229,0.0033588968217372894,0.0,0.0,0.0,0.0,0.0,0.0,0.0,0.0,0.0,0.30255973492136334,0.2328540924630681,9.79256026677536,0.0,0.0,0.0,0.0,0.0,0.0,0.0,0.0,0.0
1702623864623309408,338,1702623864622894763,base_link,-0.00858711447870049,-0.014009427683018461,-0.9788945999331617,0.2037040981978983,0.0,0.0,0.0,0.0,0.0,0.0,0.0,0.0,0.0,-0.008531054481863976,-0.001064462587237358,0.0001631472259759903,0.0,0.0,0.0,0.0,0.0,0.0,0.0,0.0,0.0,0.31400155201605595,0.09869864547062221,9.794470971048604,0.0,0.0,0.0,0.0,0.0,0.0,0.0,0.0,0.0
1702623864626366344,339,1702623864626015663,base_link,-0.008604677661675424,-0.013982281054419553,-0.9788947564402127,0.20370447013433582,0.0,0.0,0.0,0.0,0.0,0.0,0.0,0.0,0.0,-0.008531054481863976,-0.001064462587237358,0.0001631472259759903,0.0,0.0,0.0,0.0,0.0,0.0,0.0,0.0,0.0,0.31400155201605595,0.09869864547062221,9.794470971048604,0.0,0.0,0.0,0.0,0.0,0.0,0.0,0.0,0.0
1702623864629707715,340,1702623864629419326,base_link,-0.008604677661675424,-0.013982281054419553,-0.9788947564402127,0.20370447013433582,0.0,0.0,0.0,0.0,0.0,0.0,0.0,0.0,0.0,-0.007465951144695282,-0.006390703842043877,0.0012284256517887115,0.0,0.0,0.0,0.0,0.0,0.0,0.0,0.0,0.0,0.2987048363309371,0.19352903873312707,9.793534700603228,0.0,0.0,0.0,0.0,0.0,0.0,0.0,0.0,0.0
1702623864633167475,341,1702623864632779359,base_link,-0.008631658067543818,-0.013957904825603306,-0.9788940638199776,0.20370832871999656,0.0,0.0,0.0,0.0,0.0,0.0,0.0,0.0,0.0,-0.007465951144695282,-0.006390703842043877,0.0012284256517887115,0.0,0.0,0.0,0.0,0.0,0.0,0.0,0.0,0.0,0.2987048363309371,0.19352903873312707,9.793534700603228,0.0,0.0,0.0,0.0,0.0,0.0,0.0,0.0,0.0
1702623864636593935,342,1702623864636229276,base_link,-0.008631658067543818,-0.013957904825603306,-0.9788940638199776,0.20370832871999656,0.0,0.0,0.0,0.0,0.0,0.0,0.0,0.0,0.0,-0.008531386032700539,-0.005325372330844402,0.00016318447887897491,0.0,0.0,0.0,0.0,0.0,0.0,0.0,0.0,0.0,0.336274515667597,0.0558515439574506,9.794069637038024,0.0,0.0,0.0,0.0,0.0,0.0,0.0,0.0,0.0
1702623864639881918,343,1702623864639441490,base_link,-0.008653566113385414,-0.013937823806045422,-0.9788944373994587,0.20370697899058393,0.0,0.0,0.0,0.0,0.0,0.0,0.0,0.0,0.0,-0.008531386032700539,-0.005325372330844402,0.00016318447887897491,0.0,0.0,0.0,0.0,0.0,0.0,0.0,0.0,0.0,0.336274515667597,0.0558515439574506,9.794069637038024,0.0,0.0,0.0,0.0,0.0,0.0,0.0,0.0,0.0
1702623864643106624,344,1702623864642777681,base_link,-0.008653566113385414,-0.013937823806045422,-0.9788944373994587,0.20370697899058393,0.0,0.0,0.0,0.0,0.0,0.0,0.0,0.0,0.0,-0.0021399222314357758,-0.004260027781128883,-0.0009021051228046417,0.0,0.0,0.0,0.0,0.0,0.0,0.0,0.0,0.0,0.3411263343385613,0.053516711983999855,9.793914885558234,0.0,0.0,0.0,0.0,0.0,0.0,0.0,0.0,0.0
1702623864646297418,345,1702623864645992994,base_link,-0.008676024068797718,-0.013927561234732449,-0.9788943181817924,0.20370729853349478,0.0,0.0,0.0,0.0,0.0,0.0,0.0,0.0,0.0,-0.0021399222314357758,-0.004260027781128883,-0.0009021051228046417,0.0,0.0,0.0,0.0,0.0,0.0,0.0,0.0,0.0,0.3411263343385613,0.053516711983999855,9.793914885558234,0.0,0.0,0.0,0.0,0.0,0.0,0.0,0.0,0.0
1702623864649714169,346,1702623864649438619,base_link,-0.008676024068797718,-0.013927561234732449,-0.9788943181817924,0.20370729853349478,0.0,0.0,0.0,0.0,0.0,0.0,0.0,0.0,0.0,0.004251575097441673,-0.0031946785748004913,-0.0019674114882946014,0.0,0.0,0.0,0.0,0.0,0.0,0.0,0.0,0.0,0.39928464131923425,0.04401302946709473,9.791763611752673,0.0,0.0,0.0,0.0,0.0,0.0,0.0,0.0,0.0
1702623864653235281,347,1702623864652798414,base_link,-0.008688073355458556,-0.013937800424875623,-0.9788942691058014,0.20370632050210313,0.0,0.0,0.0,0.0,0.0,0.0,0.0,0.0,0.0,0.004251575097441673,-0.0031946785748004913,-0.0019674114882946014,0.0,0.0,0.0,0.0,0.0,0.0,0.0,0.0,0.0,0.39928464131923425,0.04401302946709473,9.791763611752673,0.0,0.0,0.0,0.0,0.0,0.0,0.0,0.0,0.0
1702623864656493813,348,1702623864656149148,base_link,-0.008688073355458556,-0.013937800424875623,-0.9788942691058014,0.20370632050210313,0.0,0.0,0.0,0.0,0.0,0.0,0.0,0.0,0.0,0.007447370328009129,1.0989606380462646e-06,0.0012283138930797577,0.0,0.0,0.0,0.0,0.0,0.0,0.0,0.0,0.0,0.36298641208453064,0.061114904060326075,9.79308459236127,0.0,0.0,0.0,0.0,0.0,0.0,0.0,0.0,0.0
1702623864659692435,349,1702623864659366369,base_link,-0.008680492623529898,-0.01395411139287809,-0.9788935920246745,0.20370878065532125,0.0,0.0,0.0,0.0,0.0,0.0,0.0,0.0,0.0,0.007447370328009129,1.0989606380462646e-06,0.0012283138930797577,0.0,0.0,0.0,0.0,0.0,0.0,0.0,0.0,0.0,0.36298641208453064,0.061114904060326075,9.79308459236127,0.0,0.0,0.0,0.0,0.0,0.0,0.0,0.0,0.0
1702623864663165414,350,1702623864662755012,base_link,-0.008680492623529898,-0.01395411139287809,-0.9788935920246745,0.20370878065532125,0.0,0.0,0.0,0.0,0.0,0.0,0.0,0.0,0.0,0.008512672036886215,0.008523022755980492,-0.0009022951126098633,0.0,0.0,0.0,0.0,0.0,0.0,0.0,0.0,0.0,0.37600477094798995,0.08227872832622818,9.792438441118197,0.0,0.0,0.0,0.0,0.0,0.0,0.0,0.0,0.0
1702623864666260197,351,1702623864665978670,base_link,-0.008652944998581064,-0.013977389855243078,-0.9788939569905957,0.20370660294398932,0.0,0.0,0.0,0.0,0.0,0.0,0.0,0.0,0.0,0.008512672036886215,0.008523022755980492,-0.0009022951126098633,0.0,0.0,0.0,0.0,0.0,0.0,0.0,0.0,0.0,0.37600477094798995,0.08227872832622818,9.792438441118197,0.0,0.0,0.0,0.0,0.0,0.0,0.0,0.0,0.0
1702623864669812703,352,1702623864669487476,base_link,-0.008652944998581064,-0.013977389855243078,-0.9788939569905957,0.20370660294398932,0.0,0.0,0.0,0.0,0.0,0.0,0.0,0.0,0.0,0.008512737229466438,0.005327044054865837,0.00016287341713905334,0.0,0.0,0.0,0.0,0.0,0.0,0.0,0.0,0.0,0.3316721981705124,0.0681499020604889,9.794148719710655,0.0,0.0,0.0,0.0,0.0,0.0,0.0,0.0,0.0
1702623864672986843,353,1702623864672665357,base_link,-0.008634869740186233,-0.013986939037078839,-0.978894882639726,0.20370226631704422,0.0,0.0,0.0,0.0,0.0,0.0,0.0,0.0,0.0,0.008512737229466438,0.005327044054865837,0.00016287341713905334,0.0,0.0,0.0,0.0,0.0,0.0,0.0,0.0,0.0,0.3316721981705124,0.0681499020604889,9.794148719710655,0.0,0.0,0.0,0.0,0.0,0.0,0.0,0.0,0.0
1702623864676635335,354,1702623864676221132,base_link,-0.008634869740186233,-0.013986939037078839,-0.978894882639726,0.20370226631704422,0.0,0.0,0.0,0.0,0.0,0.0,0.0,0.0,0.0,0.006382191553711891,0.0063921548426151276,-0.0009024590253829956,0.0,0.0,0.0,0.0,0.0,0.0,0.0,0.0,0.0,0.3806408661124261,0.03695329371285857,9.79253526851596,0.0,0.0,0.0,0.0,0.0,0.0,0.0,0.0,0.0
1702623864679671260,355,1702623864679346799,base_link,-0.00861387280014986,-0.013998439885819915,-0.9788950465879751,0.20370157741576722,0.0,0.0,0.0,0.0,0.0,0.0,0.0,0.0,0.0,0.006382191553711891,0.0063921548426151276,-0.0009024590253829956,0.0,0.0,0.0,0.0,0.0,0.0,0.0,0.0,0.0,0.3806408661124261,0.03695329371285857,9.79253526851596,0.0,0.0,0.0,0.0,0.0,0.0,0.0,0.0,0.0
1702623864683181382,356,1702623864682780265,base_link,-0.00861387280014986,-0.013998439885819915,-0.9788950465879751,0.20370157741576722,0.0,0.0,0.0,0.0,0.0,0.0,0.0,0.0,0.0,0.011708559468388557,0.006391974166035652,-0.001967817544937134,0.0,0.0,0.0,0.0,0.0,0.0,0.0,0.0,0.0,0.3830738233420755,0.09414026750105306,9.792057600724421,0.0,0.0,0.0,0.0,0.0,0.0,0.0,0.0,0.0
1702623864686540136,357,1702623864686126947,base_link,-0.008588302156590406,-0.014033915576889228,-0.9788959202347801,0.20369601770125664,0.0,0.0,0.0,0.0,0.0,0.0,0.0,0.0,0.0,0.011708559468388557,0.006391974166035652,-0.001967817544937134,0.0,0.0,0.0,0.0,0.0,0.0,0.0,0.0,0.0,0.3830738233420755,0.09414026750105306,9.792057600724421,0.0,0.0,0.0,0.0,0.0,0.0,0.0,0.0,0.0
1702623864690172414,358,1702623864689685583,base_link,-0.008588302156590406,-0.014033915576889228,-0.9788959202347801,0.20369601770125664,0.0,0.0,0.0,0.0,0.0,0.0,0.0,0.0,0.0,0.019165556877851486,0.015979059040546417,-0.0009026955813169479,0.0,0.0,0.0,0.0,0.0,0.0,0.0,0.0,0.0,0.3712682715905552,0.1321076715773553,9.792073704462226,0.0,0.0,0.0,0.0,0.0,0.0,0.0,0.0,0.0
1702623864693242882,359,1702623864692796230,base_link,-0.008527397037940003,-0.014077148632769435,-0.9788972722804106,0.20368909570249438,0.0,0.0,0.0,0.0,0.0,0.0,0.0,0.0,0.0,0.019165556877851486,0.015979059040546417,-0.0009026955813169479,0.0,0.0,0.0,0.0,0.0,0.0,0.0,0.0,0.0,0.3712682715905552,0.1321076715773553,9.792073704462226,0.0,0.0,0.0,0.0,0.0,0.0,0.0,0.0,0.0
1702623864696794753,360,1702623864696215629,base_link,-0.008527397037940003,-0.014077148632769435,-0.9788972722804106,0.20368909570249438,0.0,0.0,0.0,0.0,0.0,0.0,0.0,0.0,0.0,0.01490465272217989,0.020239632576704025,0.00016244500875473022,0.0,0.0,0.0,0.0,0.0,0.0,0.0,0.0,0.0,0.23946317116198884,0.2204960899805364,9.794592327604063,0.0,0.0,0.0,0.0,0.0,0.0,0.0,0.0,0.0
1702623864699919798,361,1702623864699465751,base_link,-0.00847700698136348,-0.014118652636556808,-0.9788964523596771,0.2036922668095295,0.0,0.0,0.0,0.0,0.0,0.0,0.0,0.0,0.0,0.01490465272217989,0.020239632576704025,0.00016244500875473022,0.0,0.0,0.0,0.0,0.0,0.0,0.0,0.0,0.0,0.23946317116198884,0.2204960899805364,9.794592327604063,0.0,0.0,0.0,0.0,0.0,0.0,0.0,0.0,0.0
1702623864703320351,362,1702623864702856540,base_link,-0.00847700698136348,-0.014118652636556808,-0.9788964523596771,0.2036922668095295,0.0,0.0,0.0,0.0,0.0,0.0,0.0,0.0,0.0,0.012774253264069557,0.00958673469722271,-0.0009029414504766464,0.0,0.0,0.0,0.0,0.0,0.0,0.0,0.0,0.0,0.21679581796733038,0.34173642104015567,9.791640097136257,0.0,0.0,0.0,0.0,0.0,0.0,0.0,0.0,0.0
1702623864706372406,363,1702623864706028699,base_link,-0.008446700380668169,-0.014148420469309761,-0.9788968390653043,0.20368960189184554,0.0,0.0,0.0,0.0,0.0,0.0,0.0,0.0,0.0,0.012774253264069557,0.00958673469722271,-0.0009029414504766464,0.0,0.0,0.0,0.0,0.0,0.0,0.0,0.0,0.0,0.21679581796733038,0.34173642104015567,9.791640097136257,0.0,0.0,0.0,0.0,0.0,0.0,0.0,0.0,0.0
1702623864710108289,364,1702623864709568023,base_link,-0.008446700380668169,-0.014148420469309761,-0.9788968390653043,0.20368960189184554,0.0,0.0,0.0,0.0,0.0,0.0,0.0,0.0,0.0,0.0010563414543867111,0.005325498059391975,0.005488613620400429,0.0,0.0,0.0,0.0,0.0,0.0,0.0,0.0,0.0,0.2258586779204001,0.29952317313236987,9.792817455991141,0.0,0.0,0.0,0.0,0.0,0.0,0.0,0.0,0.0
1702623864712955018,365,1702623864712688446,base_link,-0.00842620324010419,-0.014157373524061035,-0.9788938621261992,0.20370413487583036,0.0,0.0,0.0,0.0,0.0,0.0,0.0,0.0,0.0,0.0010563414543867111,0.005325498059391975,0.005488613620400429,0.0,0.0,0.0,0.0,0.0,0.0,0.0,0.0,0.0,0.2258586779204001,0.29952317313236987,9.792817455991141,0.0,0.0,0.0,0.0,0.0,0.0,0.0,0.0,0.0
1702623864716455498,366,1702623864716135978,base_link,-0.00842620324010419,-0.014157373524061035,-0.9788938621261992,0.20370413487583036,0.0,0.0,0.0,0.0,0.0,0.0,0.0,0.0,0.0,0.007447940297424793,0.008521072566509247,-0.0009030215442180634,0.0,0.0,0.0,0.0,0.0,0.0,0.0,0.0,0.0,0.21695910110068894,0.33017419854748553,9.792033177387783,0.0,0.0,0.0,0.0,0.0,0.0,0.0,0.0,0.0
1702623864719654186,367,1702623864719375610,base_link,-0.008392285849846994,-0.0141795378624192,-0.9788943827090383,0.2037014917591756,0.0,0.0,0.0,0.0,0.0,0.0,0.0,0.0,0.0,0.007447940297424793,0.008521072566509247,-0.0009030215442180634,0.0,0.0,0.0,0.0,0.0,0.0,0.0,0.0,0.0,0.21695910110068894,0.33017419854748553,9.792033177387783,0.0,0.0,0.0,0.0,0.0,0.0,0.0,0.0,0.0
1702623864723303392,368,1702623864722873687,base_link,-0.008392285849846994,-0.0141795378624192,-0.9788943827090383,0.2037014917591756,0.0,0.0,0.0,0.0,0.0,0.0,0.0,0.0,0.0,0.005317422561347485,0.008520836010575294,0.0012274552136659622,0.0,0.0,0.0,0.0,0.0,0.0,0.0,0.0,0.0,0.19998754782331454,0.38121624655186415,9.79054028918121,0.0,0.0,0.0,0.0,0.0,0.0,0.0,0.0,0.0
1702623864726326727,369,1702623864726012706,base_link,-0.008356686248392314,-0.014197927791453542,-0.9788935441904397,0.20370570385645573,0.0,0.0,0.0,0.0,0.0,0.0,0.0,0.0,0.0,0.005317422561347485,0.008520836010575294,0.0012274552136659622,0.0,0.0,0.0,0.0,0.0,0.0,0.0,0.0,0.0,0.19998754782331454,0.38121624655186415,9.79054028918121,0.0,0.0,0.0,0.0,0.0,0.0,0.0,0.0,0.0
1702623864730463576,370,1702623864729647874,base_link,-0.008356686248392314,-0.014197927791453542,-0.9788935441904397,0.20370570385645573,0.0,0.0,0.0,0.0,0.0,0.0,0.0,0.0,0.0,-0.0021394528448581696,0.0053248219192028046,0.00016216561198234558,0.0,0.0,0.0,0.0,0.0,0.0,0.0,0.0,0.0,0.1856216901062227,0.2911621520799302,9.793914906173033,0.0,0.0,0.0,0.0,0.0,0.0,0.0,0.0,0.0
1702623864730519275,371,1702623864730087518,base_link,-0.0083496674285437,-0.01419623746939708,-0.9788928026391088,0.20370967290950137,0.0,0.0,0.0,0.0,0.0,0.0,0.0,0.0,0.0,-0.0021394528448581696,0.0053248219192028046,0.00016216561198234558,0.0,0.0,0.0,0.0,0.0,0.0,0.0,0.0,0.0,0.1856216901062227,0.2911621520799302,9.793914906173033,0.0,0.0,0.0,0.0,0.0,0.0,0.0,0.0,0.0
1702623864737099301,372,1702623864736255645,base_link,-0.0083496674285437,-0.01419623746939708,-0.9788928026391088,0.20370967290950137,0.0,0.0,0.0,0.0,0.0,0.0,0.0,0.0,0.0,-0.008531181141734123,-0.006393022835254669,0.0012274440377950668,0.0,0.0,0.0,0.0,0.0,0.0,0.0,0.0,0.0,0.21613280879660415,0.2606240873077401,9.794149360412915,0.0,0.0,0.0,0.0,0.0,0.0,0.0,0.0,0.0
1702623864737127112,373,1702623864736694335,base_link,-0.00837966391813261,-0.014186316296751308,-0.9788916589070369,0.2037146283033624,0.0,0.0,0.0,0.0,0.0,0.0,0.0,0.0,0.0,-0.008531181141734123,-0.006393022835254669,0.0012274440377950668,0.0,0.0,0.0,0.0,0.0,0.0,0.0,0.0,0.0,0.21613280879660415,0.2606240873077401,9.794149360412915,0.0,0.0,0.0,0.0,0.0,0.0,0.0,0.0,0.0
1702623864743269201,374,1702623864742849111,base_link,-0.00837966391813261,-0.014186316296751308,-0.9788916589070369,0.2037146283033624,0.0,0.0,0.0,0.0,0.0,0.0,0.0,0.0,0.0,-0.010661877691745758,-0.005327635444700718,0.003358006477355957,0.0,0.0,0.0,0.0,0.0,0.0,0.0,0.0,0.0,0.2258256804593227,0.25391883186772835,9.79410679893108,0.0,0.0,0.0,0.0,0.0,0.0,0.0,0.0,0.0
1702623864743754552,375,1702623864743343591,base_link,-0.00841576204157683,-0.01416376961205994,-0.9788895765534028,0.20372471498258568,0.0,0.0,0.0,0.0,0.0,0.0,0.0,0.0,0.0,-0.010661877691745758,-0.005327635444700718,0.003358006477355957,0.0,0.0,0.0,0.0,0.0,0.0,0.0,0.0,0.0,0.2258256804593227,0.25391883186772835,9.79410679893108,0.0,0.0,0.0,0.0,0.0,0.0,0.0,0.0,0.0
1702623864746801215,376,1702623864746206283,base_link,-0.00841576204157683,-0.01416376961205994,-0.9788895765534028,0.20372471498258568,0.0,0.0,0.0,0.0,0.0,0.0,0.0,0.0,0.0,-0.010662060230970383,-0.006392769515514374,0.002292785793542862,0.0,0.0,0.0,0.0,0.0,0.0,0.0,0.0,0.0,0.3499417148322217,0.24762689277701733,9.7906190671578,0.0,0.0,0.0,0.0,0.0,0.0,0.0,0.0,0.0
1702623864749968496,377,1702623864749488115,base_link,-0.008453536006540505,-0.014125784068688387,-0.9788876499497017,0.2037350454128626,0.0,0.0,0.0,0.0,0.0,0.0,0.0,0.0,0.0,-0.010662060230970383,-0.006392769515514374,0.002292785793542862,0.0,0.0,0.0,0.0,0.0,0.0,0.0,0.0,0.0,0.3499417148322217,0.24762689277701733,9.7906190671578,0.0,0.0,0.0,0.0,0.0,0.0,0.0,0.0,0.0
1702623864753279518,378,1702623864752841234,base_link,-0.008453536006540505,-0.014125784068688387,-0.9788876499497017,0.2037350454128626,0.0,0.0,0.0,0.0,0.0,0.0,0.0,0.0,0.0,-0.015988634899258614,-0.006392659619450569,-0.000902930274605751,0.0,0.0,0.0,0.0,0.0,0.0,0.0,0.0,0.0,0.2887739832631401,0.13692418112265634,9.794787458399199,0.0,0.0,0.0,0.0,0.0,0.0,0.0,0.0,0.0
1702623864756327772,379,1702623864756002187,base_link,-0.008495168693855984,-0.014066659066760455,-0.9788877668641106,0.20373684275397358,0.0,0.0,0.0,0.0,0.0,0.0,0.0,0.0,0.0,-0.015988634899258614,-0.006392659619450569,-0.000902930274605751,0.0,0.0,0.0,0.0,0.0,0.0,0.0,0.0,0.0,0.2887739832631401,0.13692418112265634,9.794787458399199,0.0,0.0,0.0,0.0,0.0,0.0,0.0,0.0,0.0
1702623864759721542,380,1702623864759420394,base_link,-0.008495168693855984,-0.014066659066760455,-0.9788877668641106,0.20373684275397358,0.0,0.0,0.0,0.0,0.0,0.0,0.0,0.0,0.0,-0.017054207623004913,-0.0074577657505869865,-0.0019680988043546677,0.0,0.0,0.0,0.0,0.0,0.0,0.0,0.0,0.0,0.3313408949271928,0.1155715025719293,9.793715149989922,0.0,0.0,0.0,0.0,0.0,0.0,0.0,0.0,0.0
1702623864762942558,381,1702623864762643098,base_link,-0.008536368721715178,-0.014018911926872945,-0.9788884291513938,0.20373522962646862,0.0,0.0,0.0,0.0,0.0,0.0,0.0,0.0,0.0,-0.017054207623004913,-0.0074577657505869865,-0.0019680988043546677,0.0,0.0,0.0,0.0,0.0,0.0,0.0,0.0,0.0,0.3313408949271928,0.1155715025719293,9.793715149989922,0.0,0.0,0.0,0.0,0.0,0.0,0.0,0.0,0.0
1702623864766426095,382,1702623864766091823,base_link,-0.008536368721715178,-0.014018911926872945,-0.9788884291513938,0.20373522962646862,0.0,0.0,0.0,0.0,0.0,0.0,0.0,0.0,0.0,-0.014923913404345512,-0.0021313680335879326,0.001227760687470436,0.0,0.0,0.0,0.0,0.0,0.0,0.0,0.0,0.0,0.3660361863948642,0.10892916591012869,9.792555945567207,0.0,0.0,0.0,0.0,0.0,0.0,0.0,0.0,0.0
1702623864769948496,383,1702623864769469022,base_link,-0.008567010151016725,-0.013974564181533231,-0.9788887343178848,0.20373552394842254,0.0,0.0,0.0,0.0,0.0,0.0,0.0,0.0,0.0,-0.014923913404345512,-0.0021313680335879326,0.001227760687470436,0.0,0.0,0.0,0.0,0.0,0.0,0.0,0.0,0.0,0.3660361863948642,0.10892916591012869,9.792555945567207,0.0,0.0,0.0,0.0,0.0,0.0,0.0,0.0,0.0
1702623864773276612,384,1702623864772862434,base_link,-0.008567010151016725,-0.013974564181533231,-0.9788887343178848,0.20373552394842254,0.0,0.0,0.0,0.0,0.0,0.0,0.0,0.0,0.0,-0.009597817435860634,-0.004261773079633713,-0.0009027309715747833,0.0,0.0,0.0,0.0,0.0,0.0,0.0,0.0,0.0,0.372450257497903,0.051590997539622915,9.792784035945171,0.0,0.0,0.0,0.0,0.0,0.0,0.0,0.0,0.0
1702623864776302007,385,1702623864776002645,base_link,-0.008588247477930841,-0.013943997607385586,-0.9788892338588691,0.20373432398881533,0.0,0.0,0.0,0.0,0.0,0.0,0.0,0.0,0.0,-0.009597817435860634,-0.004261773079633713,-0.0009027309715747833,0.0,0.0,0.0,0.0,0.0,0.0,0.0,0.0,0.0,0.372450257497903,0.051590997539622915,9.792784035945171,0.0,0.0,0.0,0.0,0.0,0.0,0.0,0.0,0.0
1702623864779686666,386,1702623864779417037,base_link,-0.008588247477930841,-0.013943997607385586,-0.9788892338588691,0.20373432398881533,0.0,0.0,0.0,0.0,0.0,0.0,0.0,0.0,0.0,-0.005336906760931015,0.0031950362026691437,-0.0009027197957038879,0.0,0.0,0.0,0.0,0.0,0.0,0.0,0.0,0.0,0.39394536386390594,0.06041354845642752,9.79189242452413,0.0,0.0,0.0,0.0,0.0,0.0,0.0,0.0,0.0
1702623864783116469,387,1702623864782725095,base_link,-0.00859304964204958,-0.013922108450742545,-0.9788901125865137,0.20373139638871973,0.0,0.0,0.0,0.0,0.0,0.0,0.0,0.0,0.0,-0.005336906760931015,0.0031950362026691437,-0.0009027197957038879,0.0,0.0,0.0,0.0,0.0,0.0,0.0,0.0,0.0,0.39394536386390594,0.06041354845642752,9.79189242452413,0.0,0.0,0.0,0.0,0.0,0.0,0.0,0.0,0.0
1702623864786515321,388,1702623864786119699,base_link,-0.00859304964204958,-0.013922108450742545,-0.9788901125865137,0.20373139638871973,0.0,0.0,0.0,0.0,0.0,0.0,0.0,0.0,0.0,-0.004271766170859337,0.0010644812136888504,0.00016254186630249023,0.0,0.0,0.0,0.0,0.0,0.0,0.0,0.0,0.0,0.3623549576217995,0.025035237538304236,9.793266672646483,0.0,0.0,0.0,0.0,0.0,0.0,0.0,0.0,0.0
1702623864789712486,389,1702623864789363622,base_link,-0.00859743970566233,-0.01390594310517579,-0.9788901418765511,0.2037321744687586,0.0,0.0,0.0,0.0,0.0,0.0,0.0,0.0,0.0,-0.004271766170859337,0.0010644812136888504,0.00016254186630249023,0.0,0.0,0.0,0.0,0.0,0.0,0.0,0.0,0.0,0.3623549576217995,0.025035237538304236,9.793266672646483,0.0,0.0,0.0,0.0,0.0,0.0,0.0,0.0,0.0
1702623864793075740,390,1702623864792749881,base_link,-0.00859743970566233,-0.01390594310517579,-0.9788901418765511,0.2037321744687586,0.0,0.0,0.0,0.0,0.0,0.0,0.0,0.0,0.0,0.00211974885314703,0.0021296795457601547,-0.0009027551859617233,0.0,0.0,0.0,0.0,0.0,0.0,0.0,0.0,0.0,0.36353426988803644,0.015804700488758913,9.79324221318249,0.0,0.0,0.0,0.0,0.0,0.0,0.0,0.0,0.0
1702623864796268510,391,1702623864795970201,base_link,-0.008599017963341187,-0.01390471372254442,-0.9788903898537069,0.20373100028816854,0.0,0.0,0.0,0.0,0.0,0.0,0.0,0.0,0.0,0.00211974885314703,0.0021296795457601547,-0.0009027551859617233,0.0,0.0,0.0,0.0,0.0,0.0,0.0,0.0,0.0,0.36353426988803644,0.015804700488758913,9.79324221318249,0.0,0.0,0.0,0.0,0.0,0.0,0.0,0.0,0.0
1702623864799784204,392,1702623864799402952,base_link,-0.008599017963341187,-0.01390471372254442,-0.9788903898537069,0.20373100028816854,0.0,0.0,0.0,0.0,0.0,0.0,0.0,0.0,0.0,0.0042502135038375854,0.006390681490302086,-0.005163868889212608,0.0,0.0,0.0,0.0,0.0,0.0,0.0,0.0,0.0,0.4135192485087174,0.09645477142256488,9.790796612542957,0.0,0.0,0.0,0.0,0.0,0.0,0.0,0.0,0.0
1702623864803089901,393,1702623864802680253,base_link,-0.008585695852387552,-0.013912673539424974,-0.9788927029704013,0.20371990431231213,0.0,0.0,0.0,0.0,0.0,0.0,0.0,0.0,0.0,0.0042502135038375854,0.006390681490302086,-0.005163868889212608,0.0,0.0,0.0,0.0,0.0,0.0,0.0,0.0,0.0,0.4135192485087174,0.09645477142256488,9.790796612542957,0.0,0.0,0.0,0.0,0.0,0.0,0.0,0.0,0.0
1702623864806380775,394,1702623864806093215,base_link,-0.008585695852387552,-0.013912673539424974,-0.9788927029704013,0.20371990431231213,0.0,0.0,0.0,0.0,0.0,0.0,0.0,0.0,0.0,0.00851128064095974,0.003194795921444893,0.00016237050294876099,0.0,0.0,0.0,0.0,0.0,0.0,0.0,0.0,0.0,0.3115565041343501,0.1412906820739049,9.794027235406825,0.0,0.0,0.0,0.0,0.0,0.0,0.0,0.0,0.0
1702623864809908096,395,1702623864809476137,base_link,-0.008582795558838785,-0.013932572577880574,-0.9788930310805107,0.20371708996490018,0.0,0.0,0.0,0.0,0.0,0.0,0.0,0.0,0.0,0.00851128064095974,0.003194795921444893,0.00016237050294876099,0.0,0.0,0.0,0.0,0.0,0.0,0.0,0.0,0.0,0.3115565041343501,0.1412906820739049,9.794027235406825,0.0,0.0,0.0,0.0,0.0,0.0,0.0,0.0,0.0
1702623864813218690,396,1702623864812797784,base_link,-0.008582795558838785,-0.013932572577880574,-0.9788930310805107,0.20371708996490018,0.0,0.0,0.0,0.0,0.0,0.0,0.0,0.0,0.0,0.01064181886613369,0.0010642390698194504,0.00016227923333644867,0.0,0.0,0.0,0.0,0.0,0.0,0.0,0.0,0.0,0.2619515981480789,0.22405418161200746,9.793935934236545,0.0,0.0,0.0,0.0,0.0,0.0,0.0,0.0,0.0
1702623864816521223,397,1702623864816014766,base_link,-0.008581708462850435,-0.013964041561674528,-0.9788924178389501,0.20371792783291517,0.0,0.0,0.0,0.0,0.0,0.0,0.0,0.0,0.0,0.01064181886613369,0.0010642390698194504,0.00016227923333644867,0.0,0.0,0.0,0.0,0.0,0.0,0.0,0.0,0.0,0.2619515981480789,0.22405418161200746,9.793935934236545,0.0,0.0,0.0,0.0,0.0,0.0,0.0,0.0,0.0
1702623864819831622,398,1702623864819464921,base_link,-0.008581708462850435,-0.013964041561674528,-0.9788924178389501,0.20371792783291517,0.0,0.0,0.0,0.0,0.0,0.0,0.0,0.0,0.0,0.006380785256624222,0.002129446715116501,0.00016219355165958405,0.0,0.0,0.0,0.0,0.0,0.0,0.0,0.0,0.0,0.3150649323042388,0.25633248181119056,9.791579430674128,0.0,0.0,0.0,0.0,0.0,0.0,0.0,0.0,0.0
1702623864822953601,399,1702623864822660684,base_link,-0.008573074694503961,-0.013997781551954209,-0.9788929562737787,0.20371338851309753,0.0,0.0,0.0,0.0,0.0,0.0,0.0,0.0,0.0,0.006380785256624222,0.002129446715116501,0.00016219355165958405,0.0,0.0,0.0,0.0,0.0,0.0,0.0,0.0,0.0,0.3150649323042388,0.25633248181119056,9.791579430674128,0.0,0.0,0.0,0.0,0.0,0.0,0.0,0.0,0.0
1702623864826336615,400,1702623864826070308,base_link,-0.008573074694503961,-0.013997781551954209,-0.9788929562737787,0.20371338851309753,0.0,0.0,0.0,0.0,0.0,0.0,0.0,0.0,0.0,0.007446064613759518,0.006390411406755447,-0.00196843221783638,0.0,0.0,0.0,0.0,0.0,0.0,0.0,0.0,0.0,0.2547584454883606,0.3132988188485678,9.791677179347797,0.0,0.0,0.0,0.0,0.0,0.0,0.0,0.0,0.0
1702623864829653514,401,1702623864829319953,base_link,-0.00855493404652886,-0.014025685868056503,-0.9788929010101105,0.2037124973863906,0.0,0.0,0.0,0.0,0.0,0.0,0.0,0.0,0.0,0.007446064613759518,0.006390411406755447,-0.00196843221783638,0.0,0.0,0.0,0.0,0.0,0.0,0.0,0.0,0.0,0.2547584454883606,0.3132988188485678,9.791677179347797,0.0,0.0,0.0,0.0,0.0,0.0,0.0,0.0,0.0
1702623864833091597,402,1702623864832772493,base_link,-0.00855493404652886,-0.014025685868056503,-0.9788929010101105,0.2037124973863906,0.0,0.0,0.0,0.0,0.0,0.0,0.0,0.0,0.0,0.00425027497112751,0.0063902586698532104,-0.0009032301604747772,0.0,0.0,0.0,0.0,0.0,0.0,0.0,0.0,0.0,0.24705078568185107,0.32553958357599494,9.791475368340523,0.0,0.0,0.0,0.0,0.0,0.0,0.0,0.0,0.0
1702623864836450646,403,1702623864836040735,base_link,-0.008546455553606596,-0.014043498765138857,-0.9788933458046077,0.20370948868269353,0.0,0.0,0.0,0.0,0.0,0.0,0.0,0.0,0.0,0.00425027497112751,0.0063902586698532104,-0.0009032301604747772,0.0,0.0,0.0,0.0,0.0,0.0,0.0,0.0,0.0,0.24705078568185107,0.32553958357599494,9.791475368340523,0.0,0.0,0.0,0.0,0.0,0.0,0.0,0.0,0.0
1702623864839785027,404,1702623864839441061,base_link,-0.008546455553606596,-0.014043498765138857,-0.9788933458046077,0.20370948868269353,0.0,0.0,0.0,0.0,0.0,0.0,0.0,0.0,0.0,-0.0010761208832263947,-0.0010665860027074814,0.0012272652238607407,0.0,0.0,0.0,0.0,0.0,0.0,0.0,0.0,0.0,0.26290847793352384,0.3335122530722749,9.790794079607707,0.0,0.0,0.0,0.0,0.0,0.0,0.0,0.0,0.0
1702623864842899900,405,1702623864842636823,base_link,-0.008555356668758332,-0.014050927160373834,-0.9788931315657667,0.20370963229943445,0.0,0.0,0.0,0.0,0.0,0.0,0.0,0.0,0.0,-0.0010761208832263947,-0.0010665860027074814,0.0012272652238607407,0.0,0.0,0.0,0.0,0.0,0.0,0.0,0.0,0.0,0.26290847793352384,0.3335122530722749,9.790794079607707,0.0,0.0,0.0,0.0,0.0,0.0,0.0,0.0,0.0
1702623864846568845,406,1702623864846112966,base_link,-0.008555356668758332,-0.014050927160373834,-0.9788931315657667,0.20370963229943445,0.0,0.0,0.0,0.0,0.0,0.0,0.0,0.0,0.0,-0.0053373053669929504,-0.003197045996785164,0.0012272577732801437,0.0,0.0,0.0,0.0,0.0,0.0,0.0,0.0,0.0,0.21765875437023088,0.2909226891287037,9.793262411249692,0.0,0.0,0.0,0.0,0.0,0.0,0.0,0.0,0.0
1702623864849914997,407,1702623864849442005,base_link,-0.008566483822077076,-0.014040957456164255,-0.9788927472487465,0.20371169886003512,0.0,0.0,0.0,0.0,0.0,0.0,0.0,0.0,0.0,-0.0053373053669929504,-0.003197045996785164,0.0012272577732801437,0.0,0.0,0.0,0.0,0.0,0.0,0.0,0.0,0.0,0.21765875437023088,0.2909226891287037,9.793262411249692,0.0,0.0,0.0,0.0,0.0,0.0,0.0,0.0,0.0
1702623864853319287,408,1702623864852876186,base_link,-0.008566483822077076,-0.014040957456164255,-0.9788927472487465,0.20371169886003512,0.0,0.0,0.0,0.0,0.0,0.0,0.0,0.0,0.0,-0.003206901252269745,-0.0010665357112884521,0.0012272652238607407,0.0,0.0,0.0,0.0,0.0,0.0,0.0,0.0,0.0,0.24377045522989277,0.29822516845188846,9.792427570018521,0.0,0.0,0.0,0.0,0.0,0.0,0.0,0.0,0.0
1702623864856371098,409,1702623864856027364,base_link,-0.008578227864735742,-0.014032670098298759,-0.9788920302594868,0.20371522100980333,0.0,0.0,0.0,0.0,0.0,0.0,0.0,0.0,0.0,-0.003206901252269745,-0.0010665357112884521,0.0012272652238607407,0.0,0.0,0.0,0.0,0.0,0.0,0.0,0.0,0.0,0.24377045522989277,0.29822516845188846,9.792427570018521,0.0,0.0,0.0,0.0,0.0,0.0,0.0,0.0,0.0
1702623864859785369,410,1702623864859452486,base_link,-0.008578227864735742,-0.014032670098298759,-0.9788920302594868,0.20371522100980333,0.0,0.0,0.0,0.0,0.0,0.0,0.0,0.0,0.0,-0.011729206889867783,-0.0010665040463209152,0.00016204267740249634,0.0,0.0,0.0,0.0,0.0,0.0,0.0,0.0,0.0,0.28505732197233097,0.2496984428976643,9.792670371803824,0.0,0.0,0.0,0.0,0.0,0.0,0.0,0.0,0.0
1702623864862952976,411,1702623864862644672,base_link,-0.008608293155565487,-0.013993657634704202,-0.9788915752321472,0.20371882282812315,0.0,0.0,0.0,0.0,0.0,0.0,0.0,0.0,0.0,-0.011729206889867783,-0.0010665040463209152,0.00016204267740249634,0.0,0.0,0.0,0.0,0.0,0.0,0.0,0.0,0.0,0.28505732197233097,0.2496984428976643,9.792670371803824,0.0,0.0,0.0,0.0,0.0,0.0,0.0,0.0,0.0
1702623864866441985,412,1702623864866131305,base_link,-0.008608293155565487,-0.013993657634704202,-0.9788915752321472,0.20371882282812315,0.0,0.0,0.0,0.0,0.0,0.0,0.0,0.0,0.0,-0.014925220981240273,-0.004262223839759827,0.003357909619808197,0.0,0.0,0.0,0.0,0.0,0.0,0.0,0.0,0.0,0.30773235178045333,0.17931460065433466,9.793525773369867,0.0,0.0,0.0,0.0,0.0,0.0,0.0,0.0,0.0
1702623864869704361,413,1702623864869353055,base_link,-0.008644648400551725,-0.013942266760583893,-0.9788909034297073,0.2037240349938584,0.0,0.0,0.0,0.0,0.0,0.0,0.0,0.0,0.0,-0.014925220981240273,-0.004262223839759827,0.003357909619808197,0.0,0.0,0.0,0.0,0.0,0.0,0.0,0.0,0.0,0.30773235178045333,0.17931460065433466,9.793525773369867,0.0,0.0,0.0,0.0,0.0,0.0,0.0,0.0,0.0
1702623864873244198,414,1702623864872802972,base_link,-0.008644648400551725,-0.013942266760583893,-0.9788909034297073,0.2037240349938584,0.0,0.0,0.0,0.0,0.0,0.0,0.0,0.0,0.0,-0.014925489202141762,-0.0031968727707862854,0.00016219541430473328,0.0,0.0,0.0,0.0,0.0,0.0,0.0,0.0,0.0,0.3387538567643163,0.13376260133455156,9.793229977439085,0.0,0.0,0.0,0.0,0.0,0.0,0.0,0.0,0.0
1702623864876368050,415,1702623864875989437,base_link,-0.008666633652896952,-0.01389394781405591,-0.978891683714023,0.20372265271881718,0.0,0.0,0.0,0.0,0.0,0.0,0.0,0.0,0.0,-0.014925489202141762,-0.0031968727707862854,0.00016219541430473328,0.0,0.0,0.0,0.0,0.0,0.0,0.0,0.0,0.0,0.3387538567643163,0.13376260133455156,9.793229977439085,0.0,0.0,0.0,0.0,0.0,0.0,0.0,0.0,0.0
1702623864879859566,416,1702623864879461526,base_link,-0.008666633652896952,-0.01389394781405591,-0.978891683714023,0.20372265271881718,0.0,0.0,0.0,0.0,0.0,0.0,0.0,0.0,0.0,-0.009599369019269943,-0.001066349446773529,0.00016224198043346405,0.0,0.0,0.0,0.0,0.0,0.0,0.0,0.0,0.0,0.32243919392774834,0.11339018824907499,9.794037759342574,0.0,0.0,0.0,0.0,0.0,0.0,0.0,0.0,0.0
1702623864883071492,417,1702623864882688760,base_link,-0.00868527085840112,-0.013851365140755455,-0.9788923755828605,0.2037214342664945,0.0,0.0,0.0,0.0,0.0,0.0,0.0,0.0,0.0,-0.009599369019269943,-0.001066349446773529,0.00016224198043346405,0.0,0.0,0.0,0.0,0.0,0.0,0.0,0.0,0.0,0.32243919392774834,0.11339018824907499,9.794037759342574,0.0,0.0,0.0,0.0,0.0,0.0,0.0,0.0,0.0
1702623864886489716,418,1702623864886094331,base_link,-0.00868527085840112,-0.013851365140755455,-0.9788923755828605,0.2037214342664945,0.0,0.0,0.0,0.0,0.0,0.0,0.0,0.0,0.0,-0.009599583223462105,-0.005327356047928333,0.0012275557965040207,0.0,0.0,0.0,0.0,0.0,0.0,0.0,0.0,0.0,0.2843114165679281,0.18852235418361174,9.794060768669052,0.0,0.0,0.0,0.0,0.0,0.0,0.0,0.0,0.0
1702623864889711684,419,1702623864889357089,base_link,-0.00871608518154603,-0.013826688067348051,-0.9788920505052645,0.20372335657404356,0.0,0.0,0.0,0.0,0.0,0.0,0.0,0.0,0.0,-0.009599583223462105,-0.005327356047928333,0.0012275557965040207,0.0,0.0,0.0,0.0,0.0,0.0,0.0,0.0,0.0,0.2843114165679281,0.18852235418361174,9.794060768669052,0.0,0.0,0.0,0.0,0.0,0.0,0.0,0.0,0.0
1702623864893036475,420,1702623864892743110,base_link,-0.00871608518154603,-0.013826688067348051,-0.9788920505052645,0.20372335657404356,0.0,0.0,0.0,0.0,0.0,0.0,0.0,0.0,0.0,-0.010665034875273705,-0.005327251739799976,0.00016231462359428406,0.0,0.0,0.0,0.0,0.0,0.0,0.0,0.0,0.0,0.2770392307265547,0.13221280863327942,9.795191117985995,0.0,0.0,0.0,0.0,0.0,0.0,0.0,0.0,0.0
1702623864896299069,421,1702623864895957231,base_link,-0.008753354819555439,-0.01378670212106339,-0.9788926111436692,0.20372177466426422,0.0,0.0,0.0,0.0,0.0,0.0,0.0,0.0,0.0,-0.010665034875273705,-0.005327251739799976,0.00016231462359428406,0.0,0.0,0.0,0.0,0.0,0.0,0.0,0.0,0.0,0.2770392307265547,0.13221280863327942,9.795191117985995,0.0,0.0,0.0,0.0,0.0,0.0,0.0,0.0,0.0
1702623864899781545,422,1702623864899410486,base_link,-0.008753354819555439,-0.01378670212106339,-0.9788926111436692,0.20372177466426422,0.0,0.0,0.0,0.0,0.0,0.0,0.0,0.0,0.0,-0.017056889832019806,-0.011718638241291046,0.0033581797033548355,0.0,0.0,0.0,0.0,0.0,0.0,0.0,0.0,0.0,0.35748058196018745,0.08236314274161459,9.793131467831886,0.0,0.0,0.0,0.0,0.0,0.0,0.0,0.0,0.0
1702623864903064169,423,1702623864902697801,base_link,-0.008808890964494286,-0.013741948205482477,-0.9788927841983641,0.20372157309393768,0.0,0.0,0.0,0.0,0.0,0.0,0.0,0.0,0.0,-0.017056889832019806,-0.011718638241291046,0.0033581797033548355,0.0,0.0,0.0,0.0,0.0,0.0,0.0,0.0,0.0,0.35748058196018745,0.08236314274161459,9.793131467831886,0.0,0.0,0.0,0.0,0.0,0.0,0.0,0.0,0.0
1702623864906418272,424,1702623864906095504,base_link,-0.008808890964494286,-0.013741948205482477,-0.9788927841983641,0.20372157309393768,0.0,0.0,0.0,0.0,0.0,0.0,0.0,0.0,0.0,-0.006404487416148186,-0.01065308041870594,0.00016240589320659637,0.0,0.0,0.0,0.0,0.0,0.0,0.0,0.0,0.0,0.4494934267934929,0.0756051655124338,9.789394236530535,0.0,0.0,0.0,0.0,0.0,0.0,0.0,0.0,0.0
1702623864909692320,425,1702623864909365177,base_link,-0.008850906569905576,-0.013725625742026378,-0.9788929876609345,0.20371987472784842,0.0,0.0,0.0,0.0,0.0,0.0,0.0,0.0,0.0,-0.006404487416148186,-0.01065308041870594,0.00016240589320659637,0.0,0.0,0.0,0.0,0.0,0.0,0.0,0.0,0.0,0.4494934267934929,0.0756051655124338,9.789394236530535,0.0,0.0,0.0,0.0,0.0,0.0,0.0,0.0,0.0
1702623864913630814,426,1702623864912775993,base_link,-0.008850906569905576,-0.013725625742026378,-0.9788929876609345,0.20371987472784842,0.0,0.0,0.0,0.0,0.0,0.0,0.0,0.0,0.0,-0.001078316941857338,-0.0010655764490365982,-0.003033410757780075,0.0,0.0,0.0,0.0,0.0,0.0,0.0,0.0,0.0,0.43902857808043233,0.02291448860718775,9.790134260256115,0.0,0.0,0.0,0.0,0.0,0.0,0.0,0.0,0.0
1702623864913688572,427,1702623864913053512,base_link,-0.008855911678608866,-0.013724576856436764,-0.9788942541126802,0.20371364236013276,0.0,0.0,0.0,0.0,0.0,0.0,0.0,0.0,0.0,-0.001078316941857338,-0.0010655764490365982,-0.003033410757780075,0.0,0.0,0.0,0.0,0.0,0.0,0.0,0.0,0.0,0.43902857808043233,0.02291448860718775,9.790134260256115,0.0,0.0,0.0,0.0,0.0,0.0,0.0,0.0,0.0
1702623864920253818,428,1702623864919503450,base_link,-0.008855911678608866,-0.013724576856436764,-0.9788942541126802,0.20371364236013276,0.0,0.0,0.0,0.0,0.0,0.0,0.0,0.0,0.0,0.01170487143099308,0.005325911566615105,-0.0009029656648635864,0.0,0.0,0.0,0.0,0.0,0.0,0.0,0.0,0.0,0.3638944128542469,0.046343692228454435,9.793131936131777,0.0,0.0,0.0,0.0,0.0,0.0,0.0,0.0,0.0
1702623864920275198,429,1702623864919869422,base_link,-0.008838820246824914,-0.013752082622052842,-0.9788948556066303,0.2037096393081956,0.0,0.0,0.0,0.0,0.0,0.0,0.0,0.0,0.0,0.01170487143099308,0.005325911566615105,-0.0009029656648635864,0.0,0.0,0.0,0.0,0.0,0.0,0.0,0.0,0.0,0.3638944128542469,0.046343692228454435,9.793131936131777,0.0,0.0,0.0,0.0,0.0,0.0,0.0,0.0,0.0
1702623864923197328,430,1702623864922774314,base_link,-0.008838820246824914,-0.013752082622052842,-0.9788948556066303,0.2037096393081956,0.0,0.0,0.0,0.0,0.0,0.0,0.0,0.0,0.0,0.012770203873515129,0.004260526970028877,0.00016218982636928558,0.0,0.0,0.0,0.0,0.0,0.0,0.0,0.0,0.0,0.3318729188632423,0.10240511095905074,9.793843656041007,0.0,0.0,0.0,0.0,0.0,0.0,0.0,0.0,0.0
1702623864926338627,431,1702623864926017045,base_link,-0.00881956659863177,-0.013781025548213907,-0.9788944247502832,0.2037105882684158,0.0,0.0,0.0,0.0,0.0,0.0,0.0,0.0,0.0,0.012770203873515129,0.004260526970028877,0.00016218982636928558,0.0,0.0,0.0,0.0,0.0,0.0,0.0,0.0,0.0,0.3318729188632423,0.10240511095905074,9.793843656041007,0.0,0.0,0.0,0.0,0.0,0.0,0.0,0.0,0.0
1702623864929786499,432,1702623864929435968,base_link,-0.00881956659863177,-0.013781025548213907,-0.9788944247502832,0.2037105882684158,0.0,0.0,0.0,0.0,0.0,0.0,0.0,0.0,0.0,0.010639742016792297,0.004260370507836342,-0.0009031761437654495,0.0,0.0,0.0,0.0,0.0,0.0,0.0,0.0,0.0,0.3539127677206312,0.14363685334916362,9.792554018600269,0.0,0.0,0.0,0.0,0.0,0.0,0.0,0.0,0.0
1702623864933103973,433,1702623864932654380,base_link,-0.008802276443083058,-0.013803989427031482,-0.9788947749425218,0.20370809850260677,0.0,0.0,0.0,0.0,0.0,0.0,0.0,0.0,0.0,0.010639742016792297,0.004260370507836342,-0.0009031761437654495,0.0,0.0,0.0,0.0,0.0,0.0,0.0,0.0,0.0,0.3539127677206312,0.14363685334916362,9.792554018600269,0.0,0.0,0.0,0.0,0.0,0.0,0.0,0.0,0.0
1702623864936364904,434,1702623864936091184,base_link,-0.008802276443083058,-0.013803989427031482,-0.9788947749425218,0.20370809850260677,0.0,0.0,0.0,0.0,0.0,0.0,0.0,0.0,0.0,0.013835608959197998,0.005325468257069588,0.00016198493540287018,0.0,0.0,0.0,0.0,0.0,0.0,0.0,0.0,0.0,0.35833471257482025,0.18846559313266434,9.791633007520712,0.0,0.0,0.0,0.0,0.0,0.0,0.0,0.0,0.0
1702623864939636948,435,1702623864939310312,base_link,-0.008785685867085252,-0.013844733230276934,-0.9788941217997419,0.20370918828452297,0.0,0.0,0.0,0.0,0.0,0.0,0.0,0.0,0.0,0.013835608959197998,0.005325468257069588,0.00016198493540287018,0.0,0.0,0.0,0.0,0.0,0.0,0.0,0.0,0.0,0.35833471257482025,0.18846559313266434,9.791633007520712,0.0,0.0,0.0,0.0,0.0,0.0,0.0,0.0,0.0
1702623864943047783,436,1702623864942739486,base_link,-0.008785685867085252,-0.013844733230276934,-0.9788941217997419,0.20370918828452297,0.0,0.0,0.0,0.0,0.0,0.0,0.0,0.0,0.0,0.013835709542036057,0.006390577182173729,-0.0009034015238285065,0.0,0.0,0.0,0.0,0.0,0.0,0.0,0.0,0.0,0.3140756872853072,0.23612442902421005,9.792119367975161,0.0,0.0,0.0,0.0,0.0,0.0,0.0,0.0,0.0
1702623864946292718,437,1702623864945989847,base_link,-0.008759999477480475,-0.013882124316523088,-0.9788939424493224,0.20370861167274715,0.0,0.0,0.0,0.0,0.0,0.0,0.0,0.0,0.0,0.013835709542036057,0.006390577182173729,-0.0009034015238285065,0.0,0.0,0.0,0.0,0.0,0.0,0.0,0.0,0.0,0.3140756872853072,0.23612442902421005,9.792119367975161,0.0,0.0,0.0,0.0,0.0,0.0,0.0,0.0,0.0
1702623864949844716,438,1702623864949429273,base_link,-0.008759999477480475,-0.013882124316523088,-0.9788939424493224,0.20370861167274715,0.0,0.0,0.0,0.0,0.0,0.0,0.0,0.0,0.0,0.0063789281994104385,0.011716602370142937,0.00016178563237190247,0.0,0.0,0.0,0.0,0.0,0.0,0.0,0.0,0.0,0.3190943158758472,0.22923581323972622,9.792120799883142,0.0,0.0,0.0,0.0,0.0,0.0,0.0,0.0,0.0
1702623864953113888,439,1702623864952715635,base_link,-0.00873903911340365,-0.013901699868199545,-0.9788943565435326,0.2037061871013543,0.0,0.0,0.0,0.0,0.0,0.0,0.0,0.0,0.0,0.0063789281994104385,0.011716602370142937,0.00016178563237190247,0.0,0.0,0.0,0.0,0.0,0.0,0.0,0.0,0.0,0.3190943158758472,0.22923581323972622,9.792120799883142,0.0,0.0,0.0,0.0,0.0,0.0,0.0,0.0,0.0
1702623864956493184,440,1702623864956138610,base_link,-0.00873903911340365,-0.013901699868199545,-0.9788943565435326,0.2037061871013543,0.0,0.0,0.0,0.0,0.0,0.0,0.0,0.0,0.0,0.004248373210430145,0.0010638963431119919,-0.0009035468101501465,0.0,0.0,0.0,0.0,0.0,0.0,0.0,0.0,0.0,0.2882954530962947,0.2504689350816836,9.792555899471958,0.0,0.0,0.0,0.0,0.0,0.0,0.0,0.0,0.0
1702623864959623686,441,1702623864959325551,base_link,-0.008742063629330016,-0.013917293017656204,-0.9788940152199884,0.20370663279591722,0.0,0.0,0.0,0.0,0.0,0.0,0.0,0.0,0.0,0.004248373210430145,0.0010638963431119919,-0.0009035468101501465,0.0,0.0,0.0,0.0,0.0,0.0,0.0,0.0,0.0,0.2882954530962947,0.2504689350816836,9.792555899471958,0.0,0.0,0.0,0.0,0.0,0.0,0.0,0.0,0.0
1702623864963064177,442,1702623864962746143,base_link,-0.008742063629330016,-0.013917293017656204,-0.9788940152199884,0.20370663279591722,0.0,0.0,0.0,0.0,0.0,0.0,0.0,0.0,0.0,0.0010525565594434738,-1.432374119758606e-06,0.002292206510901451,0.0,0.0,0.0,0.0,0.0,0.0,0.0,0.0,0.0,0.2773354688904835,0.2703139271497744,9.792344735480066,0.0,0.0,0.0,0.0,0.0,0.0,0.0,0.0,0.0
1702623864966282921,443,1702623864965989589,base_link,-0.008734653998648128,-0.013923321817059103,-0.9788935055351197,0.20370898789760655,0.0,0.0,0.0,0.0,0.0,0.0,0.0,0.0,0.0,0.0010525565594434738,-1.432374119758606e-06,0.002292206510901451,0.0,0.0,0.0,0.0,0.0,0.0,0.0,0.0,0.0,0.2773354688904835,0.2703139271497744,9.792344735480066,0.0,0.0,0.0,0.0,0.0,0.0,0.0,0.0,0.0
1702623864970083882,444,1702623864969562292,base_link,-0.008734653998648128,-0.013923321817059103,-0.9788935055351197,0.20370898789760655,0.0,0.0,0.0,0.0,0.0,0.0,0.0,0.0,0.0,-0.0032085981220006943,0.004259470850229263,-0.0030341334640979767,0.0,0.0,0.0,0.0,0.0,0.0,0.0,0.0,0.0,0.2547355422871036,0.28807871631326304,9.792452218760273,0.0,0.0,0.0,0.0,0.0,0.0,0.0,0.0,0.0
1702623864973268005,445,1702623864972801446,base_link,-0.00872802133920827,-0.01391524568954229,-0.9788949820694006,0.2037027286519499,0.0,0.0,0.0,0.0,0.0,0.0,0.0,0.0,0.0,-0.0032085981220006943,0.004259470850229263,-0.0030341334640979767,0.0,0.0,0.0,0.0,0.0,0.0,0.0,0.0,0.0,0.2547355422871036,0.28807871631326304,9.792452218760273,0.0,0.0,0.0,0.0,0.0,0.0,0.0,0.0,0.0
1702623864976460462,446,1702623864976139307,base_link,-0.00872802133920827,-0.01391524568954229,-0.9788949820694006,0.2037027286519499,0.0,0.0,0.0,0.0,0.0,0.0,0.0,0.0,0.0,-0.003208715468645096,-0.002132144756615162,-0.001968884840607643,0.0,0.0,0.0,0.0,0.0,0.0,0.0,0.0,0.0,0.24964815619849484,0.2283039116244349,9.794159132975311,0.0,0.0,0.0,0.0,0.0,0.0,0.0,0.0,0.0
1702623864979579244,447,1702623864979306936,base_link,-0.00875545645502633,-0.013907367834752275,-0.9788962349449618,0.20369606847642188,0.0,0.0,0.0,0.0,0.0,0.0,0.0,0.0,0.0,-0.003208715468645096,-0.002132144756615162,-0.001968884840607643,0.0,0.0,0.0,0.0,0.0,0.0,0.0,0.0,0.0,0.24964815619849484,0.2283039116244349,9.794159132975311,0.0,0.0,0.0,0.0,0.0,0.0,0.0,0.0,0.0
1702623864983170394,448,1702623864982819318,base_link,-0.00875545645502633,-0.013907367834752275,-0.9788962349449618,0.20369606847642188,0.0,0.0,0.0,0.0,0.0,0.0,0.0,0.0,0.0,-0.0032088719308376312,-0.004262538626790047,0.00016163475811481476,0.0,0.0,0.0,0.0,0.0,0.0,0.0,0.0,0.0,0.27787221465180584,0.2566660724542878,9.792696746023303,0.0,0.0,0.0,0.0,0.0,0.0,0.0,0.0,0.0
1702623864986452600,449,1702623864986082315,base_link,-0.008773650710128969,-0.013898736297577258,-0.978895046649834,0.2037015852342986,0.0,0.0,0.0,0.0,0.0,0.0,0.0,0.0,0.0,-0.0032088719308376312,-0.004262538626790047,0.00016163475811481476,0.0,0.0,0.0,0.0,0.0,0.0,0.0,0.0,0.0,0.27787221465180584,0.2566660724542878,9.792696746023303,0.0,0.0,0.0,0.0,0.0,0.0,0.0,0.0,0.0
1702623864989962157,450,1702623864989564657,base_link,-0.008773650710128969,-0.013898736297577258,-0.978895046649834,0.2037015852342986,0.0,0.0,0.0,0.0,0.0,0.0,0.0,0.0,0.0,-0.007470088079571724,-0.0021320106461644173,-0.0019688699394464493,0.0,0.0,0.0,0.0,0.0,0.0,0.0,0.0,0.0,0.2622147558171568,0.17062717025397375,9.795005349187047,0.0,0.0,0.0,0.0,0.0,0.0,0.0,0.0,0.0
1702623864992978669,451,1702623864992681026,base_link,-0.008791594124217712,-0.013872077191828107,-0.9788962713567055,0.20369674339831328,0.0,0.0,0.0,0.0,0.0,0.0,0.0,0.0,0.0,-0.007470088079571724,-0.0021320106461644173,-0.0019688699394464493,0.0,0.0,0.0,0.0,0.0,0.0,0.0,0.0,0.0,0.2622147558171568,0.17062717025397375,9.795005349187047,0.0,0.0,0.0,0.0,0.0,0.0,0.0,0.0,0.0
1702623864996553867,452,1702623864996194124,base_link,-0.008791594124217712,-0.013872077191828107,-0.9788962713567055,0.20369674339831328,0.0,0.0,0.0,0.0,0.0,0.0,0.0,0.0,0.0,-0.009600790217518806,-0.006393015384674072,0.0022922158241271973,0.0,0.0,0.0,0.0,0.0,0.0,0.0,0.0,0.0,0.3310639866804306,0.19139489558753087,9.792536169484713,0.0,0.0,0.0,0.0,0.0,0.0,0.0,0.0,0.0
1702623864999745833,453,1702623864999398946,base_link,-0.008833643791187484,-0.013846785876644802,-0.9788958633109324,0.203698605913249,0.0,0.0,0.0,0.0,0.0,0.0,0.0,0.0,0.0,-0.009600790217518806,-0.006393015384674072,0.0022922158241271973,0.0,0.0,0.0,0.0,0.0,0.0,0.0,0.0,0.0,0.3310639866804306,0.19139489558753087,9.792536169484713,0.0,0.0,0.0,0.0,0.0,0.0,0.0,0.0,0.0
1702623865003098840,454,1702623865002761363,base_link,-0.008833643791187484,-0.013846785876644802,-0.9788958633109324,0.203698605913249,0.0,0.0,0.0,0.0,0.0,0.0,0.0,0.0,0.0,-0.008535729721188545,-0.0063928402960300446,0.0012269746512174606,0.0,0.0,0.0,0.0,0.0,0.0,0.0,0.0,0.0,0.3097298153280434,0.11307060523806178,9.794451617100774,0.0,0.0,0.0,0.0,0.0,0.0,0.0,0.0,0.0
1702623865006357697,455,1702623865006020784,base_link,-0.008863708136413267,-0.013820101025257162,-0.9788952227979008,0.2037021901432884,0.0,0.0,0.0,0.0,0.0,0.0,0.0,0.0,0.0,-0.008535729721188545,-0.0063928402960300446,0.0012269746512174606,0.0,0.0,0.0,0.0,0.0,0.0,0.0,0.0,0.0,0.3097298153280434,0.11307060523806178,9.794451617100774,0.0,0.0,0.0,0.0,0.0,0.0,0.0,0.0,0.0
1702623865009711594,456,1702623865009424448,base_link,-0.008863708136413267,-0.013820101025257162,-0.9788952227979008,0.2037021901432884,0.0,0.0,0.0,0.0,0.0,0.0,0.0,0.0,0.0,-0.0053400639444589615,0.0010639913380146027,0.0022922586649656296,0.0,0.0,0.0,0.0,0.0,0.0,0.0,0.0,0.0,0.34571661811269994,0.11721244465921603,9.793198724766988,0.0,0.0,0.0,0.0,0.0,0.0,0.0,0.0,0.0
1702623865012941040,457,1702623865012655735,base_link,-0.008879248393174607,-0.013800582934477848,-0.9788945090949316,0.20370626628170763,0.0,0.0,0.0,0.0,0.0,0.0,0.0,0.0,0.0,-0.0053400639444589615,0.0010639913380146027,0.0022922586649656296,0.0,0.0,0.0,0.0,0.0,0.0,0.0,0.0,0.0,0.34571661811269994,0.11721244465921603,9.793198724766988,0.0,0.0,0.0,0.0,0.0,0.0,0.0,0.0,0.0
1702623865016394245,458,1702623865016095638,base_link,-0.008879248393174607,-0.013800582934477848,-0.9788945090949316,0.20370626628170763,0.0,0.0,0.0,0.0,0.0,0.0,0.0,0.0,0.0,-0.004274938255548477,-0.0031969957053661346,-0.0009035412222146988,0.0,0.0,0.0,0.0,0.0,0.0,0.0,0.0,0.0,0.3051760337936836,0.049057898617560006,9.79512434382439,0.0,0.0,0.0,0.0,0.0,0.0,0.0,0.0,0.0
1702623865019629255,459,1702623865019325017,base_link,-0.008894582615239495,-0.01378867668135829,-0.9788948123900387,0.20370494611410012,0.0,0.0,0.0,0.0,0.0,0.0,0.0,0.0,0.0,-0.004274938255548477,-0.0031969957053661346,-0.0009035412222146988,0.0,0.0,0.0,0.0,0.0,0.0,0.0,0.0,0.0,0.3051760337936836,0.049057898617560006,9.79512434382439,0.0,0.0,0.0,0.0,0.0,0.0,0.0,0.0,0.0
1702623865023057845,460,1702623865022752523,base_link,-0.008894582615239495,-0.01378867668135829,-0.9788948123900387,0.20370494611410012,0.0,0.0,0.0,0.0,0.0,0.0,0.0,0.0,0.0,0.003181854262948036,0.0010640323162078857,0.00016168691217899323,0.0,0.0,0.0,0.0,0.0,0.0,0.0,0.0,0.0,0.37979942928686705,0.12232155440714206,9.791873662932995,0.0,0.0,0.0,0.0,0.0,0.0,0.0,0.0,0.0
1702623865026285201,461,1702623865025986194,base_link,-0.008897153355037697,-0.013783784326019954,-0.9788954345106353,0.20370217535918744,0.0,0.0,0.0,0.0,0.0,0.0,0.0,0.0,0.0,0.003181854262948036,0.0010640323162078857,0.00016168691217899323,0.0,0.0,0.0,0.0,0.0,0.0,0.0,0.0,0.0,0.37979942928686705,0.12232155440714206,9.791873662932995,0.0,0.0,0.0,0.0,0.0,0.0,0.0,0.0,0.0
1702623865029674913,462,1702623865029400348,base_link,-0.008897153355037697,-0.013783784326019954,-0.9788954345106353,0.20370217535918744,0.0,0.0,0.0,0.0,0.0,0.0,0.0,0.0,0.0,-1.4029443264007568e-05,0.0010639689862728119,0.001226929947733879,0.0,0.0,0.0,0.0,0.0,0.0,0.0,0.0,0.0,0.4028956057827653,0.08484472652150887,9.79134702189757,0.0,0.0,0.0,0.0,0.0,0.0,0.0,0.0,0.0
1702623865032939146,463,1702623865032645702,base_link,-0.00889724837223111,-0.013779610345449885,-0.9788960439381175,0.20369952496860036,0.0,0.0,0.0,0.0,0.0,0.0,0.0,0.0,0.0,-1.4029443264007568e-05,0.0010639689862728119,0.001226929947733879,0.0,0.0,0.0,0.0,0.0,0.0,0.0,0.0,0.0,0.4028956057827653,0.08484472652150887,9.79134702189757,0.0,0.0,0.0,0.0,0.0,0.0,0.0,0.0,0.0
1702623865036488915,464,1702623865036099433,base_link,-0.00889724837223111,-0.013779610345449885,-0.9788960439381175,0.20369952496860036,0.0,0.0,0.0,0.0,0.0,0.0,0.0,0.0,0.0,0.005312235094606876,0.004259668290615082,-0.00196891650557518,0.0,0.0,0.0,0.0,0.0,0.0,0.0,0.0,0.0,0.3124429495153748,0.09349534678633961,9.794571865243904,0.0,0.0,0.0,0.0,0.0,0.0,0.0,0.0,0.0
1702623865039622013,465,1702623865039322137,base_link,-0.008884893508623157,-0.013785840770575293,-0.9788958831148662,0.20370041551836646,0.0,0.0,0.0,0.0,0.0,0.0,0.0,0.0,0.0,0.005312235094606876,0.004259668290615082,-0.00196891650557518,0.0,0.0,0.0,0.0,0.0,0.0,0.0,0.0,0.0,0.3124429495153748,0.09349534678633961,9.794571865243904,0.0,0.0,0.0,0.0,0.0,0.0,0.0,0.0,0.0
1702623865043009251,466,1702623865042725086,base_link,-0.008884893508623157,-0.013785840770575293,-0.9788958831148662,0.20370041551836646,0.0,0.0,0.0,0.0,0.0,0.0,0.0,0.0,0.0,0.007442771457135677,0.00639001838862896,-0.0030342470854520798,0.0,0.0,0.0,0.0,0.0,0.0,0.0,0.0,0.0,0.3531738007433108,0.23705148109389657,9.790764774101138,0.0,0.0,0.0,0.0,0.0,0.0,0.0,0.0,0.0
1702623865046271248,467,1702623865045979976,base_link,-0.008872967030384536,-0.013796618518672542,-0.9788971082688106,0.20369431802701013,0.0,0.0,0.0,0.0,0.0,0.0,0.0,0.0,0.0,0.007442771457135677,0.00639001838862896,-0.0030342470854520798,0.0,0.0,0.0,0.0,0.0,0.0,0.0,0.0,0.0,0.3531738007433108,0.23705148109389657,9.790764774101138,0.0,0.0,0.0,0.0,0.0,0.0,0.0,0.0,0.0
1702623865049693091,468,1702623865049405813,base_link,-0.008872967030384536,-0.013796618518672542,-0.9788971082688106,0.20369431802701013,0.0,0.0,0.0,0.0,0.0,0.0,0.0,0.0,0.0,0.002116394229233265,0.006389867514371872,-0.001969020813703537,0.0,0.0,0.0,0.0,0.0,0.0,0.0,0.0,0.0,0.22658084222808383,0.24766951152981767,9.79424938088641,0.0,0.0,0.0,0.0,0.0,0.0,0.0,0.0,0.0
1702623865052919970,469,1702623865052642345,base_link,-0.00886338696757676,-0.013808124504078286,-0.9788986763056118,0.20368641976396942,0.0,0.0,0.0,0.0,0.0,0.0,0.0,0.0,0.0,0.002116394229233265,0.006389867514371872,-0.001969020813703537,0.0,0.0,0.0,0.0,0.0,0.0,0.0,0.0,0.0,0.22658084222808383,0.24766951152981767,9.79424938088641,0.0,0.0,0.0,0.0,0.0,0.0,0.0,0.0,0.0
1702623865056315612,470,1702623865056079149,base_link,-0.00886338696757676,-0.013808124504078286,-0.9788986763056118,0.20368641976396942,0.0,0.0,0.0,0.0,0.0,0.0,0.0,0.0,0.0,0.004246870055794716,0.0031940490007400513,-0.0019690878689289093,0.0,0.0,0.0,0.0,0.0,0.0,0.0,0.0,0.0,0.21380978468206993,0.3101067472400802,9.792758507248628,0.0,0.0,0.0,0.0,0.0,0.0,0.0,0.0,0.0
1702623865059593884,471,1702623865059311389,base_link,-0.008858957124981373,-0.013825963141228446,-0.9789009272940871,0.20367458399282815,0.0,0.0,0.0,0.0,0.0,0.0,0.0,0.0,0.0,0.004246870055794716,0.0031940490007400513,-0.0019690878689289093,0.0,0.0,0.0,0.0,0.0,0.0,0.0,0.0,0.0,0.21380978468206993,0.3101067472400802,9.792758507248628,0.0,0.0,0.0,0.0,0.0,0.0,0.0,0.0,0.0
1702623865063025023,472,1702623865062726974,base_link,-0.008858957124981373,-0.013825963141228446,-0.9789009272940871,0.20367458399282815,0.0,0.0,0.0,0.0,0.0,0.0,0.0,0.0,0.0,-0.0053407009690999985,-0.0031973961740732193,-0.006230181083083153,0.0,0.0,0.0,0.0,0.0,0.0,0.0,0.0,0.0,0.2543028330977363,0.2896547072992861,9.792416975375275,0.0,0.0,0.0,0.0,0.0,0.0,0.0,0.0,0.0
1702623865066372287,473,1702623865065983057,base_link,-0.008878507201158542,-0.013819214433418957,-0.9789051432352553,0.20365392696897924,0.0,0.0,0.0,0.0,0.0,0.0,0.0,0.0,0.0,-0.0053407009690999985,-0.0031973961740732193,-0.006230181083083153,0.0,0.0,0.0,0.0,0.0,0.0,0.0,0.0,0.0,0.2543028330977363,0.2896547072992861,9.792416975375275,0.0,0.0,0.0,0.0,0.0,0.0,0.0,0.0,0.0
1702623865069950939,474,1702623865069467067,base_link,-0.008878507201158542,-0.013819214433418957,-0.9789051432352553,0.20365392696897924,0.0,0.0,0.0,0.0,0.0,0.0,0.0,0.0,0.0,-0.0042756665498018265,-0.0053277285769581795,-0.004099663347005844,0.0,0.0,0.0,0.0,0.0,0.0,0.0,0.0,0.0,0.2729092250900115,0.3413636374098873,9.790249814070888,0.0,0.0,0.0,0.0,0.0,0.0,0.0,0.0,0.0
1702623865073083251,475,1702623865072659015,base_link,-0.00890203154206541,-0.013815166802172513,-0.9789071572500156,0.20364349359934292,0.0,0.0,0.0,0.0,0.0,0.0,0.0,0.0,0.0,-0.0042756665498018265,-0.0053277285769581795,-0.004099663347005844,0.0,0.0,0.0,0.0,0.0,0.0,0.0,0.0,0.0,0.2729092250900115,0.3413636374098873,9.790249814070888,0.0,0.0,0.0,0.0,0.0,0.0,0.0,0.0,0.0
1702623865076486434,476,1702623865076086282,base_link,-0.00890203154206541,-0.013815166802172513,-0.9789071572500156,0.20364349359934292,0.0,0.0,0.0,0.0,0.0,0.0,0.0,0.0,0.0,-0.00853695161640644,-0.011719075962901115,-0.001969125121831894,0.0,0.0,0.0,0.0,0.0,0.0,0.0,0.0,0.0,0.2150322163321479,0.31084130612908073,9.792708452126167,0.0,0.0,0.0,0.0,0.0,0.0,0.0,0.0,0.0
1702623865079684007,477,1702623865079305887,base_link,-0.00894379236482755,-0.01379700759696266,-0.978908177035778,0.2036379927518294,0.0,0.0,0.0,0.0,0.0,0.0,0.0,0.0,0.0,-0.00853695161640644,-0.011719075962901115,-0.001969125121831894,0.0,0.0,0.0,0.0,0.0,0.0,0.0,0.0,0.0,0.2150322163321479,0.31084130612908073,9.792708452126167,0.0,0.0,0.0,0.0,0.0,0.0,0.0,0.0,0.0
1702623865083180347,478,1702623865082758188,base_link,-0.00894379236482755,-0.01379700759696266,-0.978908177035778,0.2036379927518294,0.0,0.0,0.0,0.0,0.0,0.0,0.0,0.0,0.0,-0.014928851276636124,-0.014914552681148052,-0.004099605605006218,0.0,0.0,0.0,0.0,0.0,0.0,0.0,0.0,0.0,0.24699981341333505,0.2398223405946457,9.793951007490566,0.0,0.0,0.0,0.0,0.0,0.0,0.0,0.0,0.0
1702623865086364214,479,1702623865086031913,base_link,-0.009002631877218671,-0.013763341295642224,-0.97891132648886,0.20362253786721,0.0,0.0,0.0,0.0,0.0,0.0,0.0,0.0,0.0,-0.014928851276636124,-0.014914552681148052,-0.004099605605006218,0.0,0.0,0.0,0.0,0.0,0.0,0.0,0.0,0.0,0.24699981341333505,0.2398223405946457,9.793951007490566,0.0,0.0,0.0,0.0,0.0,0.0,0.0,0.0,0.0
1702623865089852008,480,1702623865089416742,base_link,-0.009002631877218671,-0.013763341295642224,-0.97891132648886,0.20362253786721,0.0,0.0,0.0,0.0,0.0,0.0,0.0,0.0,0.0,-0.012798648327589035,-0.014914200641214848,-0.0030343029648065567,0.0,0.0,0.0,0.0,0.0,0.0,0.0,0.0,0.0,0.3163390683266613,0.1825913975347033,9.793191000659414,0.0,0.0,0.0,0.0,0.0,0.0,0.0,0.0,0.0
1702623865093061742,481,1702623865092629432,base_link,-0.009055627455373366,-0.013726419555613628,-0.978913828399246,0.20361065194705374,0.0,0.0,0.0,0.0,0.0,0.0,0.0,0.0,0.0,-0.012798648327589035,-0.014914200641214848,-0.0030343029648065567,0.0,0.0,0.0,0.0,0.0,0.0,0.0,0.0,0.0,0.3163390683266613,0.1825913975347033,9.793191000659414,0.0,0.0,0.0,0.0,0.0,0.0,0.0,0.0,0.0
1702623865096616770,482,1702623865096078872,base_link,-0.009055627455373366,-0.013726419555613628,-0.978913828399246,0.20361065194705374,0.0,0.0,0.0,0.0,0.0,0.0,0.0,0.0,0.0,-0.010668408125638962,-0.00958761852234602,-0.004099536687135696,0.0,0.0,0.0,0.0,0.0,0.0,0.0,0.0,0.0,0.3287511099736475,0.12409188551411145,9.79369817339909,0.0,0.0,0.0,0.0,0.0,0.0,0.0,0.0,0.0
1702623865099720054,483,1702623865099306583,base_link,-0.00909647155908774,-0.013694768355404365,-0.9789159922965142,0.20360055881798914,0.0,0.0,0.0,0.0,0.0,0.0,0.0,0.0,0.0,-0.010668408125638962,-0.00958761852234602,-0.004099536687135696,0.0,0.0,0.0,0.0,0.0,0.0,0.0,0.0,0.0,0.3287511099736475,0.12409188551411145,9.79369817339909,0.0,0.0,0.0,0.0,0.0,0.0,0.0,0.0,0.0
1702623865103443396,484,1702623865102910518,base_link,-0.00909647155908774,-0.013694768355404365,-0.9789159922965142,0.20360055881798914,0.0,0.0,0.0,0.0,0.0,0.0,0.0,0.0,0.0,-0.004277016967535019,-0.0010653957724571228,-0.0030342675745487213,0.0,0.0,0.0,0.0,0.0,0.0,0.0,0.0,0.0,0.3943894036940829,0.11937948896494821,9.79133318480524,0.0,0.0,0.0,0.0,0.0,0.0,0.0,0.0,0.0
1702623865106496886,485,1702623865106025218,base_link,-0.009114509658912896,-0.013679173219627867,-0.9789173799538101,0.2035941284960665,0.0,0.0,0.0,0.0,0.0,0.0,0.0,0.0,0.0,-0.004277016967535019,-0.0010653957724571228,-0.0030342675745487213,0.0,0.0,0.0,0.0,0.0,0.0,0.0,0.0,0.0,0.3943894036940829,0.11937948896494821,9.79133318480524,0.0,0.0,0.0,0.0,0.0,0.0,0.0,0.0,0.0
1702623865110101158,486,1702623865109482049,base_link,-0.009114509658912896,-0.013679173219627867,-0.9789173799538101,0.2035941284960665,0.0,0.0,0.0,0.0,0.0,0.0,0.0,0.0,0.0,0.0010491907596588135,-0.004261113703250885,-0.0009037647396326065,0.0,0.0,0.0,0.0,0.0,0.0,0.0,0.0,0.0,0.3064979220348674,0.10801970251955616,9.794610291770464,0.0,0.0,0.0,0.0,0.0,0.0,0.0,0.0,0.0
1702623865110162070,487,1702623865109784603,base_link,-0.009124502672602348,-0.013674439576895975,-0.978917593285079,0.20359297313557798,0.0,0.0,0.0,0.0,0.0,0.0,0.0,0.0,0.0,0.0010491907596588135,-0.004261113703250885,-0.0009037647396326065,0.0,0.0,0.0,0.0,0.0,0.0,0.0,0.0,0.0,0.3064979220348674,0.10801970251955616,9.794610291770464,0.0,0.0,0.0,0.0,0.0,0.0,0.0,0.0,0.0
1702623865116690531,488,1702623865116086959,base_link,-0.009124502672602348,-0.013674439576895975,-0.978917593285079,0.20359297313557798,0.0,0.0,0.0,0.0,0.0,0.0,0.0,0.0,0.0,0.003179682418704033,0.00319562666118145,0.0012267287820577621,0.0,0.0,0.0,0.0,0.0,0.0,0.0,0.0,0.0,0.36048721699833236,0.06542250279832203,9.793149077927305,0.0,0.0,0.0,0.0,0.0,0.0,0.0,0.0,0.0
1702623865116740913,489,1702623865116368055,base_link,-0.009115468213426601,-0.013674103603939983,-0.9789182379965881,0.2035903004750815,0.0,0.0,0.0,0.0,0.0,0.0,0.0,0.0,0.0,0.003179682418704033,0.00319562666118145,0.0012267287820577621,0.0,0.0,0.0,0.0,0.0,0.0,0.0,0.0,0.0,0.36048721699833236,0.06542250279832203,9.793149077927305,0.0,0.0,0.0,0.0,0.0,0.0,0.0,0.0,0.0
1702623865123377758,490,1702623865122746467,base_link,-0.009115468213426601,-0.013674103603939983,-0.9789182379965881,0.2035903004750815,0.0,0.0,0.0,0.0,0.0,0.0,0.0,0.0,0.0,0.00424492172896862,0.004260731860995293,0.0022919494658708572,0.0,0.0,0.0,0.0,0.0,0.0,0.0,0.0,0.0,0.2918894403317695,0.14797912420908246,9.794534329585105,0.0,0.0,0.0,0.0,0.0,0.0,0.0,0.0,0.0
1702623865123457899,491,1702623865123049974,base_link,-0.00910458914647359,-0.01367521325585722,-0.9789174421882885,0.20359453916650097,0.0,0.0,0.0,0.0,0.0,0.0,0.0,0.0,0.0,0.00424492172896862,0.004260731860995293,0.0022919494658708572,0.0,0.0,0.0,0.0,0.0,0.0,0.0,0.0,0.0,0.2918894403317695,0.14797912420908246,9.794534329585105,0.0,0.0,0.0,0.0,0.0,0.0,0.0,0.0,0.0
1702623865130045590,492,1702623865129388809,base_link,-0.00910458914647359,-0.01367521325585722,-0.9789174421882885,0.20359453916650097,0.0,0.0,0.0,0.0,0.0,0.0,0.0,0.0,0.0,0.002114376984536648,0.0063910577446222305,0.0012266486883163452,0.0,0.0,0.0,0.0,0.0,0.0,0.0,0.0,0.0,0.3816911594088465,0.1467213108811832,9.79146489120818,0.0,0.0,0.0,0.0,0.0,0.0,0.0,0.0,0.0
1702623865130059941,493,1702623865129677534,base_link,-0.009098051013232631,-0.013674914391931161,-0.9789169749652916,0.20359709798751183,0.0,0.0,0.0,0.0,0.0,0.0,0.0,0.0,0.0,0.002114376984536648,0.0063910577446222305,0.0012266486883163452,0.0,0.0,0.0,0.0,0.0,0.0,0.0,0.0,0.0,0.3816911594088465,0.1467213108811832,9.79146489120818,0.0,0.0,0.0,0.0,0.0,0.0,0.0,0.0,0.0
1702623865136830260,494,1702623865136132001,base_link,-0.009098051013232631,-0.013674914391931161,-0.9789169749652916,0.20359709798751183,0.0,0.0,0.0,0.0,0.0,0.0,0.0,0.0,0.0,0.003179585561156273,0.001064663752913475,-0.0019691865891218185,0.0,0.0,0.0,0.0,0.0,0.0,0.0,0.0,0.0,0.3209929174232875,0.1458043564964521,9.793656346665976,0.0,0.0,0.0,0.0,0.0,0.0,0.0,0.0,0.0
1702623865136854242,495,1702623865136442184,base_link,-0.00910114524618363,-0.013682198985677052,-0.9789174201587652,0.20359432972416464,0.0,0.0,0.0,0.0,0.0,0.0,0.0,0.0,0.0,0.003179585561156273,0.001064663752913475,-0.0019691865891218185,0.0,0.0,0.0,0.0,0.0,0.0,0.0,0.0,0.0,0.3209929174232875,0.1458043564964521,9.793656346665976,0.0,0.0,0.0,0.0,0.0,0.0,0.0,0.0,0.0
1702623865143339400,496,1702623865142747402,base_link,-0.00910114524618363,-0.013682198985677052,-0.9789174201587652,0.20359432972416464,0.0,0.0,0.0,0.0,0.0,0.0,0.0,0.0,0.0,0.0031795594841241837,0.002129850909113884,0.00016129016876220703,0.0,0.0,0.0,0.0,0.0,0.0,0.0,0.0,0.0,0.3134056868516361,0.16832943060948055,9.793540834562327,0.0,0.0,0.0,0.0,0.0,0.0,0.0,0.0,0.0
1702623865143373006,497,1702623865143053770,base_link,-0.009107007229601744,-0.013681842014563848,-0.9789164955017634,0.20359853745288628,0.0,0.0,0.0,0.0,0.0,0.0,0.0,0.0,0.0,0.0031795594841241837,0.002129850909113884,0.00016129016876220703,0.0,0.0,0.0,0.0,0.0,0.0,0.0,0.0,0.0,0.3134056868516361,0.16832943060948055,9.793540834562327,0.0,0.0,0.0,0.0,0.0,0.0,0.0,0.0,0.0
1702623865150192313,498,1702623865149539470,base_link,-0.009107007229601744,-0.013681842014563848,-0.9789164955017634,0.20359853745288628,0.0,0.0,0.0,0.0,0.0,0.0,0.0,0.0,0.0,-0.0021468400955200195,-0.001065969467163086,0.00016127526760101318,0.0,0.0,0.0,0.0,0.0,0.0,0.0,0.0,0.0,0.3100077238478205,0.15352938489339793,9.793892175183926,0.0,0.0,0.0,0.0,0.0,0.0,0.0,0.0,0.0
1702623865150270873,499,1702623865149888038,base_link,-0.009120976048289268,-0.013668995535945947,-0.9789167976375872,0.20359732232997557,0.0,0.0,0.0,0.0,0.0,0.0,0.0,0.0,0.0,-0.0021468400955200195,-0.001065969467163086,0.00016127526760101318,0.0,0.0,0.0,0.0,0.0,0.0,0.0,0.0,0.0,0.3100077238478205,0.15352938489339793,9.793892175183926,0.0,0.0,0.0,0.0,0.0,0.0,0.0,0.0,0.0
1702623865156825331,500,1702623865156131267,base_link,-0.009120976048289268,-0.013668995535945947,-0.9789167976375872,0.20359732232997557,0.0,0.0,0.0,0.0,0.0,0.0,0.0,0.0,0.0,-0.0032122284173965454,-0.0010659731924533844,0.0001612696796655655,0.0,0.0,0.0,0.0,0.0,0.0,0.0,0.0,0.0,0.3417440127873857,0.13544630228013144,9.793102946917418,0.0,0.0,0.0,0.0,0.0,0.0,0.0,0.0,0.0
1702623865156991753,501,1702623865156490325,base_link,-0.009133129061098647,-0.013647069070973595,-0.9789168864007328,0.20359782164556747,0.0,0.0,0.0,0.0,0.0,0.0,0.0,0.0,0.0,-0.0032122284173965454,-0.0010659731924533844,0.0001612696796655655,0.0,0.0,0.0,0.0,0.0,0.0,0.0,0.0,0.0,0.3417440127873857,0.13544630228013144,9.793102946917418,0.0,0.0,0.0,0.0,0.0,0.0,0.0,0.0,0.0
1702623865163421652,502,1702623865162735700,base_link,-0.009133129061098647,-0.013647069070973595,-0.9789168864007328,0.20359782164556747,0.0,0.0,0.0,0.0,0.0,0.0,0.0,0.0,0.0,-0.0053429026156663895,-0.0010660011321306229,0.00016128458082675934,0.0,0.0,0.0,0.0,0.0,0.0,0.0,0.0,0.0,0.39486696665955884,0.07752706941339679,9.7917347611212,0.0,0.0,0.0,0.0,0.0,0.0,0.0,0.0,0.0
1702623865163427492,503,1702623865163008451,base_link,-0.009148885868416189,-0.013625544227968238,-0.9789176613354548,0.2035948298886349,0.0,0.0,0.0,0.0,0.0,0.0,0.0,0.0,0.0,-0.0053429026156663895,-0.0010660011321306229,0.00016128458082675934,0.0,0.0,0.0,0.0,0.0,0.0,0.0,0.0,0.0,0.39486696665955884,0.07752706941339679,9.7917347611212,0.0,0.0,0.0,0.0,0.0,0.0,0.0,0.0,0.0
1702623865166541399,504,1702623865166163206,base_link,-0.009148885868416189,-0.013625544227968238,-0.9789176613354548,0.2035948298886349,0.0,0.0,0.0,0.0,0.0,0.0,0.0,0.0,0.0,-0.004277775064110756,-7.543712854385376e-07,0.0012265536934137344,0.0,0.0,0.0,0.0,0.0,0.0,0.0,0.0,0.0,0.3761045683064489,0.03957447828506296,9.792700302488965,0.0,0.0,0.0,0.0,0.0,0.0,0.0,0.0,0.0
1702623865169914047,505,1702623865169458866,base_link,-0.009151050963711226,-0.013611593119606467,-0.978918432654844,0.20359195712893344,0.0,0.0,0.0,0.0,0.0,0.0,0.0,0.0,0.0,-0.004277775064110756,-7.543712854385376e-07,0.0012265536934137344,0.0,0.0,0.0,0.0,0.0,0.0,0.0,0.0,0.0,0.3761045683064489,0.03957447828506296,9.792700302488965,0.0,0.0,0.0,0.0,0.0,0.0,0.0,0.0,0.0
1702623865173157239,506,1702623865172802209,base_link,-0.009151050963711226,-0.013611593119606467,-0.978918432654844,0.20359195712893344,0.0,0.0,0.0,0.0,0.0,0.0,0.0,0.0,0.0,0.0074400948360562325,-0.001066066324710846,0.0012264959514141083,0.0,0.0,0.0,0.0,0.0,0.0,0.0,0.0,0.0,0.34791704675907253,0.05111870433538315,9.793688815080941,0.0,0.0,0.0,0.0,0.0,0.0,0.0,0.0,0.0
1702623865176353520,507,1702623865175990819,base_link,-0.009143787565095735,-0.013626271123634516,-0.9789181382051708,0.20359271739714005,0.0,0.0,0.0,0.0,0.0,0.0,0.0,0.0,0.0,0.0074400948360562325,-0.001066066324710846,0.0012264959514141083,0.0,0.0,0.0,0.0,0.0,0.0,0.0,0.0,0.0,0.34791704675907253,0.05111870433538315,9.793688815080941,0.0,0.0,0.0,0.0,0.0,0.0,0.0,0.0,0.0
1702623865179644935,508,1702623865179395437,base_link,-0.009143787565095735,-0.013626271123634516,-0.9789181382051708,0.20359271739714005,0.0,0.0,0.0,0.0,0.0,0.0,0.0,0.0,0.0,0.007440109737217426,0.0010643433779478073,0.0001611560583114624,0.0,0.0,0.0,0.0,0.0,0.0,0.0,0.0,0.0,0.3342097636372336,0.15507622415830896,9.793071795845794,0.0,0.0,0.0,0.0,0.0,0.0,0.0,0.0,0.0
1702623865182949697,509,1702623865182657241,base_link,-0.009140708419861018,-0.01363284021313745,-0.9789178753984834,0.2035936795252382,0.0,0.0,0.0,0.0,0.0,0.0,0.0,0.0,0.0,0.007440109737217426,0.0010643433779478073,0.0001611560583114624,0.0,0.0,0.0,0.0,0.0,0.0,0.0,0.0,0.0,0.3342097636372336,0.15507622415830896,9.793071795845794,0.0,0.0,0.0,0.0,0.0,0.0,0.0,0.0,0.0
